subject,situation,sessionid,finalprofit,showupfee,type,period_game,aeffort,peffort,mae,varianta,variantp,period_lottery,period_lottery_del,offeraccept,offeracceptd,IV,va,vb,vc,vd,consistent,lossaversion,ioc,eopt,maeopt,cost,EV_control,EV_deleg,EV_diff,conflict,stakesize,revorder,maecontrol,peffort_control,wtp_del_control,delegation_control,variantp_control,period_control
1,1,111017_1315,59.634602,10,Principal,9,100,97,1,2,1,15,14,120,150,30,220,220,190,100,1,-1,0,60,40,94.089996,122.31,100.9,-21.409996,.75,low,0,0,,,,,
1,2,111017_1315,59.634602,10,Principal,2,0,85,1,1,1,11,8,180,120,-60,280,280,235,100,1,-1,0,90,60,72.25,180.75,101.35,-79.400002,.75,low,0,0,,,,,
1,3,111017_1315,59.634602,10,Principal,10,29,78,63,2,1,17,19,90,120,30,180,180,140,100,1,-1,0,40,40,60.84,101.56,125.2,23.639999,.5,low,0,0,,,,,
1,4,111017_1315,59.634602,10,Principal,7,44,97,77,2,1,2,10,120,140,20,220,220,160,100,1,-1,0,60,60,94.089996,122.31,146.2,23.889999,.5,low,0,0,,,,,
1,5,111017_1315,59.634602,10,Principal,3,51,97,95,2,1,3,16,150,250,100,260,260,260,100,1,-1,0,80,40,94.089996,161.11,252,90.889999,1,low,0,0,,,,,
1,6,111017_1315,59.634602,10,Principal,4,85,97,1,2,1,7,4,225,200,-25,440,440,380,200,1,-1,0,60,40,188.17999,244.62,201.8,-42.819992,.75,high,0,0,,,,,
1,7,111017_1315,59.634602,10,Principal,1,75,95,67,2,1,13,5,360,400,40,560,560,470,200,1,-1,0,90,60,180.5,361.5,380.89999,19.399994,.75,high,0,0,,,,,
1,8,111017_1315,59.634602,10,Principal,6,63,84,63,2,1,20,12,195,240,45,360,360,280,200,1,-1,0,40,40,141.12,193.28,250.39999,57.119995,.5,high,0,0,,,,,
1,9,111017_1315,59.634602,10,Principal,8,70,77,77,2,1,9,6,250,280,30,440,440,320,200,1,-1,0,60,60,118.58,266.22,292.39999,26.179993,.5,high,0,0,,,,,
1,10,111017_1315,59.634602,10,Principal,5,100,90,90,1,1,18,1,340,480,140,520,520,520,200,1,-1,0,80,40,162,326,488,162,1,high,0,0,,,,,
2,1,111017_1315,90.120003,10,Principal,9,51,67,60,2,1,8,4,100,140,40,220,220,190,100,1,3,0,60,40,44.889999,135.50999,154,18.490005,.75,low,0,0,,,,,
2,2,111017_1315,90.120003,10,Principal,2,25,30,15,2,1,9,13,130,140,10,280,280,235,100,1,3,0,90,60,9,145,120.25,-24.75,.75,low,0,0,,,,,
2,3,111017_1315,90.120003,10,Principal,10,0,42,20,2,1,18,1,130,110,-20,180,180,140,100,1,3,0,40,40,17.639999,115.96,108,-7.9599991,.5,low,0,0,,,,,
2,4,111017_1315,90.120003,10,Principal,7,80,69,65,2,1,6,12,120,140,20,220,220,160,100,1,3,0,60,60,47.610001,135.19,139,3.8099976,.5,low,0,0,,,,,
2,5,111017_1315,90.120003,10,Principal,3,41,50,1,2,1,11,19,180,120,-60,260,260,260,100,1,3,0,80,40,25,155,101.6,-53.400002,1,low,0,0,,,,,
2,6,111017_1315,90.120003,10,Principal,4,100,72,70,2,1,20,15,285,300,15,440,440,380,200,1,3,0,60,40,103.68,269.12,326,56.880005,.75,high,0,0,,,,,
2,7,111017_1315,90.120003,10,Principal,1,100,76,50,2,1,17,2,270,340,70,560,560,470,200,1,3,0,90,60,115.52,358.07999,335,-23.079987,.75,high,0,0,,,,,
2,8,111017_1315,90.120003,10,Principal,6,80,67,70,2,1,3,5,210,250,40,360,360,280,200,1,3,0,40,40,89.779999,217.42,256,38.580002,.5,high,0,0,,,,,
2,9,111017_1315,90.120003,10,Principal,8,60,65,70,2,1,10,16,300,290,-10,440,440,320,200,1,3,0,60,60,84.5,271.5,284,12.5,.5,high,0,0,,,,,
2,10,111017_1315,90.120003,10,Principal,5,60,90,1,1,1,7,14,340,240,-100,520,520,520,200,1,3,0,80,40,162,326,203.2,-122.8,1,high,0,0,,,,,
3,1,111017_1315,54.099998,10,Principal,9,69,77,58,2,2,7,6,70,140,70,220,220,190,100,1,3,0,60,40,59.290001,110.01,152.2,42.189995,.75,low,0,0,,,,,
3,2,111017_1315,54.099998,10,Principal,2,60,40,60,2,1,3,9,160,160,0,280,280,235,100,1,3,0,90,60,16,156,181,25,.75,low,0,0,,,,,
3,3,111017_1315,54.099998,10,Principal,10,40,60,76,2,1,20,14,88,110,22,180,180,140,100,1,3,0,40,40,36,112,130.39999,18.399994,.5,low,0,0,,,,,
3,4,111017_1315,54.099998,10,Principal,7,0,2,35,2,1,15,10,150,148,-2,220,220,160,100,1,3,0,60,60,.039999999,102.36,121,18.639999,.5,low,0,0,,,,,
3,5,111017_1315,54.099998,10,Principal,3,50,20,10,2,2,16,5,250,120,-130,260,260,260,100,1,3,0,80,40,4,128,116,-12,1,low,0,0,,,,,
3,6,111017_1315,54.099998,10,Principal,4,50,30,75,2,1,19,18,330,230,-100,440,440,380,200,1,3,0,60,40,18,254,335,81,.75,high,0,0,,,,,
3,7,111017_1315,54.099998,10,Principal,1,55,38,40,2,1,11,4,276,350,74,560,560,470,200,1,3,0,90,60,28.879999,307.92001,308,.079986572,.75,high,0,0,,,,,
3,8,111017_1315,54.099998,10,Principal,6,80,54,80,2,1,12,1,150,240,90,360,360,280,200,1,3,0,40,40,58.32,228.08,264,35.919998,.5,high,0,0,,,,,
3,9,111017_1315,54.099998,10,Principal,8,77,60,80,2,1,13,8,280,218,-62,440,440,320,200,1,3,0,60,60,72,272,296,24,.5,high,0,0,,,,,
3,10,111017_1315,54.099998,10,Principal,5,50,50,40,2,1,17,2,370,300,-70,520,520,520,200,1,3,0,80,40,50,310,328,18,1,high,0,0,,,,,
4,1,111017_1315,40.139999,10,Principal,9,0,90,1,2,1,7,17,135,100,-35,220,220,190,100,1,3,0,60,40,81,127,100.9,-26.099998,.75,low,0,0,,,,,
4,2,111017_1315,40.139999,10,Principal,2,84,79,1,2,1,18,6,150,100,-50,280,280,235,100,1,3,0,90,60,62.41,179.78999,101.35,-78.439995,.75,low,0,0,,,,,
4,3,111017_1315,40.139999,10,Principal,10,50,0,1,2,1,9,8,100,140,40,180,180,140,100,1,3,0,40,40,0,100,100.4,.40000153,.5,low,0,0,,,,,
4,4,111017_1315,40.139999,10,Principal,7,90,90,1,2,1,5,19,135,160,25,220,220,160,100,1,3,0,60,60,81,127,100.6,-26.400002,.5,low,0,0,,,,,
4,5,111017_1315,40.139999,10,Principal,3,100,89,1,1,1,20,12,165,260,95,260,260,260,100,1,3,0,80,40,79.209999,163.19,101.6,-61.590004,1,low,0,0,,,,,
4,6,111017_1315,40.139999,10,Principal,4,79,89,1,2,1,3,4,275,380,105,440,440,380,200,1,3,0,60,40,158.42,255.17999,201.8,-53.37999,.75,high,0,0,,,,,
4,7,111017_1315,40.139999,10,Principal,1,50,90,1,2,1,1,14,380,200,-180,560,560,470,200,1,3,0,90,60,162,362,202.7,-159.3,.75,high,0,0,,,,,
4,8,111017_1315,40.139999,10,Principal,6,51,89,1,2,1,10,13,200,200,0,360,360,280,200,1,3,0,40,40,158.42,183.98,200.8,16.820007,.5,high,0,0,,,,,
4,9,111017_1315,40.139999,10,Principal,8,75,75,1,2,1,2,16,200,200,0,440,440,320,200,1,3,0,60,60,112.5,267.5,201.2,-66.300003,.5,high,0,0,,,,,
4,10,111017_1315,40.139999,10,Principal,5,1,80,1,2,1,11,15,300,200,-100,520,520,520,200,1,3,0,80,40,128,328,203.2,-124.8,1,high,0,0,,,,,
5,1,111017_1315,81.947197,10,Principal,9,0,64,49,2,1,3,16,125,150,25,220,220,190,100,1,3,12,60,40,40.959999,135.84,144.10001,8.2600098,.75,low,0,0,,,,,
5,2,111017_1315,81.947197,10,Principal,2,0,55,67,2,1,5,7,101,220,119,280,280,235,100,1,3,12,90,60,30.25,168.75,190.45,21.699997,.75,low,0,0,,,,,
5,3,111017_1315,81.947197,10,Principal,10,75,51,64,2,1,19,11,100,110,10,180,180,140,100,1,3,12,40,40,26.01,114.79,125.6,10.809998,.5,low,0,0,,,,,
5,4,111017_1315,81.947197,10,Principal,7,50,66,84,2,1,13,2,90,125,35,220,220,160,100,1,3,12,60,60,43.560001,135.64,150.39999,14.759995,.5,low,0,0,,,,,
5,5,111017_1315,81.947197,10,Principal,3,44,95,1,2,2,6,18,120,120,0,260,260,260,100,1,3,12,80,40,90.25,161.75,101.6,-60.150002,1,low,0,0,,,,,
5,6,111017_1315,81.947197,10,Principal,4,75,85,90,2,1,15,10,200,370,170,440,440,380,200,1,3,12,60,40,144.5,259.5,362,102.5,.75,high,0,0,,,,,
5,7,111017_1315,81.947197,10,Principal,1,50,88,81,2,1,8,1,300,460,160,560,560,470,200,1,3,12,90,60,154.88,361.92001,418.70001,56.779999,.75,high,0,0,,,,,
5,8,111017_1315,81.947197,10,Principal,6,80,70,71,2,1,4,17,200,240,40,360,360,280,200,1,3,12,40,40,98,214,256.79999,42.799988,.5,high,0,0,,,,,
5,9,111017_1315,81.947197,10,Principal,8,80,63,63,2,1,20,12,270,250,-20,440,440,320,200,1,3,12,60,60,79.379997,271.82001,275.60001,3.7799988,.5,high,0,0,,,,,
5,10,111017_1315,81.947197,10,Principal,5,74,86,80,2,1,14,9,210,320,110,520,520,520,200,1,3,12,80,40,147.92,327.28,456,128.72,1,high,0,0,,,,,
6,1,111017_1315,57.1572,10,Principal,9,50,20,30,2,1,16,5,140,130,-10,220,220,190,100,1,2,0,60,40,4,120,127,7,.75,low,0,0,,,,,
6,2,111017_1315,57.1572,10,Principal,2,70,10,1,2,1,12,6,99,100,1,280,280,235,100,1,2,0,90,60,1,117,101.35,-15.650002,.75,low,0,0,,,,,
6,3,111017_1315,57.1572,10,Principal,10,20,0,1,2,1,14,19,100,100,0,180,180,140,100,1,2,0,40,40,0,100,100.4,.40000153,.5,low,0,0,,,,,
6,4,111017_1315,57.1572,10,Principal,7,51,40,50,2,1,1,11,145,140,-5,220,220,160,100,1,2,0,60,60,16,132,130,-2,.5,low,0,0,,,,,
6,5,111017_1315,57.1572,10,Principal,3,90,0,1,2,1,20,2,100,100,0,260,260,260,100,1,2,0,80,40,0,100,101.6,1.5999985,1,low,0,0,,,,,
6,6,111017_1315,57.1572,10,Principal,4,0,48,30,2,1,9,10,260,310,50,440,440,380,200,1,2,0,60,40,46.080002,269.12,254,-15.119995,.75,high,0,0,,,,,
6,7,111017_1315,57.1572,10,Principal,1,80,50,40,2,1,8,3,450,400,-50,560,560,470,200,1,2,0,90,60,50,330,308,-22,.75,high,0,0,,,,,
6,8,111017_1315,57.1572,10,Principal,6,0,20,32,2,1,15,7,260,220,-40,360,360,280,200,1,2,0,40,40,8,224,225.60001,1.6000061,.5,high,0,0,,,,,
6,9,111017_1315,57.1572,10,Principal,8,47,38,40,2,1,17,13,300,270,-30,440,440,320,200,1,2,0,60,60,28.879999,262.32001,248,-14.320007,.5,high,0,0,,,,,
6,10,111017_1315,57.1572,10,Principal,5,0,100,1,1,1,4,18,320,200,-120,520,520,520,200,1,2,0,80,40,200,320,203.2,-116.8,1,high,0,0,,,,,
7,1,111017_1315,62.639999,10,Principal,9,40,55,60,1,1,17,9,100,150,50,220,220,190,100,0,-1,0,60,40,30.25,135.75,154,18.25,.75,low,0,0,,,,,
7,2,111017_1315,62.639999,10,Principal,2,66,55,55,2,1,15,8,150,170,20,280,280,235,100,0,-1,0,90,60,30.25,168.75,174.25,5.5,.75,low,0,0,,,,,
7,3,111017_1315,62.639999,10,Principal,10,70,61,63,2,1,14,2,100,130,30,180,180,140,100,0,-1,0,40,40,37.209999,111.59,125.2,13.610001,.5,low,0,0,,,,,
7,4,111017_1315,62.639999,10,Principal,7,45,81,85,2,1,6,19,120,150,30,220,220,160,100,0,-1,0,60,60,65.610001,131.59,151,19.410004,.5,low,0,0,,,,,
7,5,111017_1315,62.639999,10,Principal,3,0,100,70,2,1,1,11,160,180,20,260,260,260,100,0,-1,0,80,40,100,160,212,52,1,low,0,0,,,,,
7,6,111017_1315,62.639999,10,Principal,4,50,72,80,2,1,5,13,220,330,110,440,440,380,200,0,-1,0,60,40,103.68,269.12,344,74.880005,.75,high,0,0,,,,,
7,7,111017_1315,62.639999,10,Principal,1,0,70,75,2,1,10,18,340,360,20,560,560,470,200,0,-1,0,90,60,98,354,402.5,48.5,.75,high,0,0,,,,,
7,8,111017_1315,62.639999,10,Principal,6,0,60,60,2,1,4,12,200,240,40,360,360,280,200,0,-1,0,40,40,72,224,248,24,.5,high,0,0,,,,,
7,9,111017_1315,62.639999,10,Principal,8,55,60,70,2,1,3,20,250,275,25,440,440,320,200,0,-1,0,60,60,72,272,284,12,.5,high,0,0,,,,,
7,10,111017_1315,62.639999,10,Principal,5,80,50,50,1,1,16,7,310,380,70,520,520,520,200,0,-1,0,80,40,50,310,360,50,1,high,0,0,,,,,
8,1,111017_1315,61.861198,10,Principal,9,20,54,55,2,1,15,7,136,150,14,220,220,190,100,1,1,0,60,40,29.16,135.64,149.5,13.860001,.75,low,0,0,,,,,
8,2,111017_1315,61.861198,10,Principal,2,55,91,91,2,1,8,6,182,230,48,280,280,235,100,1,1,0,90,60,82.809998,180.99001,222.85001,41.860001,.75,low,0,0,,,,,
8,3,111017_1315,61.861198,10,Principal,10,0,63,64,2,1,2,19,111,126,15,180,180,140,100,1,1,0,40,40,39.689999,110.71,125.6,14.889999,.5,low,0,0,,,,,
8,4,111017_1315,61.861198,10,Principal,7,77,77,78,2,1,14,12,134,147,13,220,220,160,100,1,1,0,60,60,59.290001,133.11,146.8,13.690002,.5,low,0,0,,,,,
8,5,111017_1315,61.861198,10,Principal,3,0,50,51,2,1,18,16,155,181,26,260,260,260,100,1,1,0,80,40,25,155,181.60001,26.600006,1,low,0,0,,,,,
8,6,111017_1315,61.861198,10,Principal,4,25,54,55,2,1,20,11,272,299,27,440,440,380,200,1,1,0,60,40,58.32,271.28,299,27.720001,.75,high,0,0,,,,,
8,7,111017_1315,61.861198,10,Principal,1,70,67,68,2,1,3,9,316,384,68,560,560,470,200,1,1,0,90,60,89.779999,351.42001,383.60001,32.179993,.75,high,0,0,,,,,
8,8,111017_1315,61.861198,10,Principal,6,50,63,64,2,1,13,17,222,252,30,360,360,280,200,1,1,0,40,40,79.379997,221.42,251.2,29.779999,.5,high,0,0,,,,,
8,9,111017_1315,61.861198,10,Principal,8,51,77,78,2,1,1,10,267,293,26,440,440,320,200,1,1,0,60,60,118.58,266.22,293.60001,27.380005,.5,high,0,0,,,,,
8,10,111017_1315,61.861198,10,Principal,5,70,94,1,2,1,5,4,337,204,-133,520,520,520,200,1,1,0,80,40,176.72,324.07999,203.2,-120.87999,1,high,0,0,,,,,
9,1,111017_1315,91.984802,10,Principal,9,70,65,50,2,1,13,18,130,150,20,220,220,190,100,1,2,0,60,40,42.25,135.75,145,9.25,.75,low,0,0,,,,,
9,2,111017_1315,91.984802,10,Principal,2,72,70,70,2,1,7,4,200,200,0,280,280,235,100,1,2,0,90,60,49,177,194.5,17.5,.75,low,0,0,,,,,
9,3,111017_1315,91.984802,10,Principal,10,1,48,70,2,1,9,14,125,133,8,180,180,140,100,1,2,0,40,40,23.040001,115.36,128,12.639999,.5,low,0,0,,,,,
9,4,111017_1315,91.984802,10,Principal,7,75,64,80,2,1,6,1,145,150,5,220,220,160,100,1,2,0,60,60,40.959999,135.84,148,12.160004,.5,low,0,0,,,,,
9,5,111017_1315,91.984802,10,Principal,3,50,60,50,1,1,16,19,180,190,10,260,260,260,100,1,2,0,80,40,36,160,180,20,1,low,0,0,,,,,
9,6,111017_1315,91.984802,10,Principal,4,80,40,50,2,1,3,12,300,340,40,440,440,380,200,1,2,0,60,40,32,264,290,26,.75,high,0,0,,,,,
9,7,111017_1315,91.984802,10,Principal,1,50,64,60,2,1,11,8,420,350,-70,560,560,470,200,1,2,0,90,60,81.919998,348.48001,362,13.519989,.75,high,0,0,,,,,
9,8,111017_1315,91.984802,10,Principal,6,40,45,50,2,1,10,2,280,260,-20,360,360,280,200,1,2,0,40,40,40.5,231.5,240,8.5,.5,high,0,0,,,,,
9,9,111017_1315,91.984802,10,Principal,8,51,64,60,2,1,15,17,320,280,-40,440,440,320,200,1,2,0,60,60,81.919998,271.67999,272,.32000732,.5,high,0,0,,,,,
9,10,111017_1315,91.984802,10,Principal,5,80,70,40,2,2,5,20,400,460,60,520,520,520,200,1,2,0,80,40,98,326,328,2,1,high,0,0,,,,,
10,1,111017_1315,111.66,10,Principal,9,0,0,1,2,1,11,7,101,101,0,220,220,190,100,1,4,0,60,40,0,100,100.9,.90000153,.75,low,0,0,,,,,
10,2,111017_1315,111.66,10,Principal,2,69,67,68,2,1,13,15,150,160,10,280,280,235,100,1,4,0,90,60,44.889999,175.71001,191.8,16.089996,.75,low,0,0,,,,,
10,3,111017_1315,111.66,10,Principal,10,45,0,1,2,1,20,10,101,101,0,180,180,140,100,1,4,0,40,40,0,100,100.4,.40000153,.5,low,0,0,,,,,
10,4,111017_1315,111.66,10,Principal,7,80,0,1,2,1,6,19,101,101,0,220,220,160,100,1,4,0,60,60,0,100,100.6,.59999847,.5,low,0,0,,,,,
10,5,111017_1315,111.66,10,Principal,3,70,0,1,2,1,5,18,150,240,90,260,260,260,100,1,4,0,80,40,0,100,101.6,1.5999985,1,low,0,0,,,,,
10,6,111017_1315,111.66,10,Principal,4,73,0,1,2,1,3,14,230,210,-20,440,440,380,200,1,4,0,60,40,0,200,201.8,1.8000031,.75,high,0,0,,,,,
10,7,111017_1315,111.66,10,Principal,1,70,0,1,2,1,8,4,200,220,20,560,560,470,200,1,4,0,90,60,0,200,202.7,2.6999969,.75,high,0,0,,,,,
10,8,111017_1315,111.66,10,Principal,6,54,0,1,2,1,17,12,201,201,0,360,360,280,200,1,4,0,40,40,0,200,200.8,.80000305,.5,high,0,0,,,,,
10,9,111017_1315,111.66,10,Principal,8,54,60,50,2,1,2,16,240,261,21,440,440,320,200,1,4,0,60,60,72,272,260,-12,.5,high,0,0,,,,,
10,10,111017_1315,111.66,10,Principal,5,88,0,1,2,1,9,1,200,250,50,520,520,520,200,1,4,0,80,40,0,200,203.2,3.1999969,1,high,0,0,,,,,
11,1,111017_1315,96.779999,10,Principal,9,50,32,30,2,1,18,2,100,110,10,220,220,190,100,1,3,0,60,40,10.24,128.16,127,-1.1600037,.75,low,0,0,,,,,
11,2,111017_1315,96.779999,10,Principal,2,60,50,50,2,1,1,4,125,150,25,280,280,235,100,1,3,0,90,60,25,165,167.5,2.5,.75,low,0,0,,,,,
11,3,111017_1315,96.779999,10,Principal,10,63,55,55,2,1,17,13,90,110,20,180,180,140,100,1,3,0,40,40,30.25,113.75,122,8.25,.5,low,0,0,,,,,
11,4,111017_1315,96.779999,10,Principal,7,55,30,45,2,1,5,19,100,120,20,220,220,160,100,1,3,0,60,60,9,127,127,0,.5,low,0,0,,,,,
11,5,111017_1315,96.779999,10,Principal,3,10,50,50,2,1,3,15,125,150,25,260,260,260,100,1,3,0,80,40,25,155,180,25,1,low,0,0,,,,,
11,6,111017_1315,96.779999,10,Principal,4,0,70,70,2,1,14,9,270,250,-20,440,440,380,200,1,3,0,60,40,98,270,326,56,.75,high,0,0,,,,,
11,7,111017_1315,96.779999,10,Principal,1,90,86,86,2,1,16,11,350,250,-100,560,560,470,200,1,3,0,90,60,147.92,361.67999,432.20001,70.52002,.75,high,0,0,,,,,
11,8,111017_1315,96.779999,10,Principal,6,70,35,35,2,1,10,6,200,230,30,360,360,280,200,1,3,0,40,40,24.5,231.5,228,-3.5,.5,high,0,0,,,,,
11,9,111017_1315,96.779999,10,Principal,8,85,70,70,2,1,20,8,240,270,30,440,440,320,200,1,3,0,60,60,98,270,284,14,.5,high,0,0,,,,,
11,10,111017_1315,96.779999,10,Principal,5,70,79,79,2,1,7,12,275,470,195,520,520,520,200,1,3,0,80,40,124.82,327.98001,452.79999,124.81998,1,high,0,0,,,,,
12,1,111017_1315,63.48,10,Principal,9,50,55,30,2,1,12,20,100,120,20,220,220,190,100,1,4,0,60,40,30.25,135.75,127,-8.75,.75,low,0,0,,,,,
12,2,111017_1315,63.48,10,Principal,2,0,67,30,2,1,5,16,190,150,-40,280,280,235,100,1,4,0,90,60,44.889999,175.71001,140.5,-35.210007,.75,low,0,0,,,,,
12,3,111017_1315,63.48,10,Principal,10,75,50,60,2,1,15,18,100,110,10,180,180,140,100,1,4,0,40,40,25,115,124,9,.5,low,0,0,,,,,
12,4,111017_1315,63.48,10,Principal,7,75,65,75,2,1,2,19,100,140,40,220,220,160,100,1,4,0,60,60,42.25,135.75,145,9.25,.5,low,0,0,,,,,
12,5,111017_1315,63.48,10,Principal,3,78,80,1,2,2,7,1,190,150,-40,260,260,260,100,1,4,0,80,40,64,164,101.6,-62.400002,1,low,0,0,,,,,
12,6,111017_1315,63.48,10,Principal,4,65,85,90,2,1,3,4,270,350,80,440,440,380,200,1,4,0,60,40,144.5,259.5,362,102.5,.75,high,0,0,,,,,
12,7,111017_1315,63.48,10,Principal,1,70,90,85,2,2,11,10,290,450,160,560,560,470,200,1,4,0,90,60,162,281,429.5,148.5,.75,high,0,0,,,,,
12,8,111017_1315,63.48,10,Principal,6,0,70,50,2,2,8,17,170,250,80,360,360,280,200,1,4,0,40,40,98,158,240,82,.5,high,0,0,,,,,
12,9,111017_1315,63.48,10,Principal,8,70,80,70,2,1,6,9,280,200,-80,440,440,320,200,1,4,0,60,60,128,264,284,20,.5,high,0,0,,,,,
12,10,111017_1315,63.48,10,Principal,5,32,90,1,2,1,14,13,350,520,170,520,520,520,200,1,4,0,80,40,162,326,203.2,-122.8,1,high,0,0,,,,,
13,1,111017_1315,75.5,10,Principal,9,55,56,80,2,1,9,12,69,120,51,220,220,190,100,1,2,0,60,40,31.360001,135.84,172,36.160004,.75,low,0,0,,,,,
13,2,111017_1315,75.5,10,Principal,2,70,35,45,2,1,11,1,88,150,62,280,280,235,100,1,2,0,90,60,12.25,150.75,160.75,10,.75,low,0,0,,,,,
13,3,111017_1315,75.5,10,Principal,10,63,45,70,2,1,8,16,80,120,40,180,180,140,100,1,2,0,40,40,20.25,115.75,128,12.25,.5,low,0,0,,,,,
13,4,111017_1315,75.5,10,Principal,7,48,40,70,2,1,7,2,84,100,16,220,220,160,100,1,2,0,60,60,16,132,142,10,.5,low,0,0,,,,,
13,5,111017_1315,75.5,10,Principal,3,0,35,1,1,1,20,15,88,100,12,260,260,260,100,1,2,0,80,40,12.25,143.75,101.6,-42.150002,1,low,0,0,,,,,
13,6,111017_1315,75.5,10,Principal,4,54,80,1,2,1,19,3,100,380,280,440,440,380,200,1,2,0,60,40,128,264,201.8,-62.199997,.75,high,0,0,,,,,
13,7,111017_1315,75.5,10,Principal,1,67,60,65,2,1,10,13,128,200,72,560,560,470,200,1,2,0,90,60,72,344,375.5,31.5,.75,high,0,0,,,,,
13,8,111017_1315,75.5,10,Principal,6,60,30,1,2,1,6,4,182,250,68,360,360,280,200,1,2,0,40,40,18,230,200.8,-29.199997,.5,high,0,0,,,,,
13,9,111017_1315,75.5,10,Principal,8,52,40,40,2,1,14,18,168,200,32,440,440,320,200,1,2,0,60,60,32,264,248,-16,.5,high,0,0,,,,,
13,10,111017_1315,75.5,10,Principal,5,85,50,46,2,1,17,5,150,200,50,520,520,520,200,1,2,0,80,40,50,310,347.20001,37.200012,1,high,0,0,,,,,
14,1,111017_1315,67.825203,10,Principal,9,73,54,1,2,1,14,13,100,140,40,220,220,190,100,1,3,0,60,40,29.16,135.64,100.9,-34.739998,.75,low,0,0,,,,,
14,2,111017_1315,67.825203,10,Principal,2,65,67,67,2,1,4,16,100,163,63,280,280,235,100,1,3,0,90,60,44.889999,175.71001,190.45,14.73999,.75,low,0,0,,,,,
14,3,111017_1315,67.825203,10,Principal,10,63,44,45,2,1,9,2,150,110,-40,180,180,140,100,1,3,0,40,40,19.360001,115.84,118,2.1600037,.5,low,0,0,,,,,
14,4,111017_1315,67.825203,10,Principal,7,76,77,77,2,1,11,8,120,140,20,220,220,160,100,1,3,0,60,60,59.290001,133.11,146.2,13.089996,.5,low,0,0,,,,,
14,5,111017_1315,67.825203,10,Principal,3,1,90,1,1,1,17,20,100,180,80,260,260,260,100,1,3,0,80,40,81,163,101.6,-61.400002,1,low,0,0,,,,,
14,6,111017_1315,67.825203,10,Principal,4,66,63,54,1,1,3,18,230,280,50,440,440,380,200,1,3,0,60,40,79.379997,271.82001,297.20001,25.380005,.75,high,0,0,,,,,
14,7,111017_1315,67.825203,10,Principal,1,85,63,63,2,1,12,7,320,320,0,560,560,470,200,1,3,0,90,60,79.379997,347.42001,370.10001,22.679993,.75,high,0,0,,,,,
14,8,111017_1315,67.825203,10,Principal,6,63,63,63,2,1,15,10,190,270,80,360,360,280,200,1,3,0,40,40,79.379997,221.42,250.39999,28.979996,.5,high,0,0,,,,,
14,9,111017_1315,67.825203,10,Principal,8,80,55,55,2,1,6,19,240,270,30,440,440,320,200,1,3,0,60,60,60.5,271.5,266,-5.5,.5,high,0,0,,,,,
14,10,111017_1315,67.825203,10,Principal,5,100,63,1,1,1,5,1,320,400,80,520,520,520,200,1,3,0,80,40,79.379997,322.22,203.2,-119.02,1,high,0,0,,,,,
15,1,111017_1315,94.139999,10,Principal,9,54,30,40,2,1,11,13,120,130,10,220,220,190,100,1,3,0,60,40,9,127,136,9,.75,low,0,0,,,,,
15,2,111017_1315,94.139999,10,Principal,2,89,75,75,2,1,10,17,112,156,44,280,280,235,100,1,3,0,90,60,56.25,178.75,201.25,22.5,.75,low,0,0,,,,,
15,3,111017_1315,94.139999,10,Principal,10,60,65,65,2,1,6,8,100,115,15,180,180,140,100,1,3,0,40,40,42.25,109.75,126,16.25,.5,low,0,0,,,,,
15,4,111017_1315,94.139999,10,Principal,7,66,78,80,2,1,7,14,110,130,20,220,220,160,100,1,3,0,60,60,60.84,132.75999,148,15.240005,.5,low,0,0,,,,,
15,5,111017_1315,94.139999,10,Principal,3,0,78,70,1,2,19,4,120,180,60,260,260,260,100,1,3,0,80,40,60.84,163.96001,212,48.039993,1,low,0,0,,,,,
15,6,111017_1315,94.139999,10,Principal,4,95,80,85,2,1,18,9,200,320,120,440,440,380,200,1,3,0,60,40,128,264,353,89,.75,high,0,0,,,,,
15,7,111017_1315,94.139999,10,Principal,1,100,65,80,2,1,16,5,321,335,14,560,560,470,200,1,3,0,90,60,84.5,349.5,416,66.5,.75,high,0,0,,,,,
15,8,111017_1315,94.139999,10,Principal,6,63,65,60,2,1,15,2,210,230,20,360,360,280,200,1,3,0,40,40,84.5,219.5,248,28.5,.5,high,0,0,,,,,
15,9,111017_1315,94.139999,10,Principal,8,1,60,60,2,1,1,12,260,260,0,440,440,320,200,1,3,0,60,60,72,272,272,0,.5,high,0,0,,,,,
15,10,111017_1315,94.139999,10,Principal,5,42,78,50,2,2,20,3,300,340,40,520,520,520,200,1,3,0,80,40,121.68,327.92001,360,32.079987,1,high,0,0,,,,,
16,1,111017_1315,82.570801,10,Principal,9,54,50,51,2,1,3,13,135,145,10,220,220,190,100,1,2,0,60,40,25,135,145.89999,10.899994,.75,low,0,0,,,,,
16,2,111017_1315,82.570801,10,Principal,2,0,50,51,2,1,15,5,170,160,-10,280,280,235,100,1,2,0,90,60,25,165,168.85001,3.8500061,.75,low,0,0,,,,,
16,3,111017_1315,82.570801,10,Principal,10,1,60,70,2,1,8,6,110,120,10,180,180,140,100,1,2,0,40,40,36,112,128,16,.5,low,0,0,,,,,
16,4,111017_1315,82.570801,10,Principal,7,80,64,71,2,1,14,1,120,140,20,220,220,160,100,1,2,0,60,60,40.959999,135.84,142.60001,6.7600098,.5,low,0,0,,,,,
16,5,111017_1315,82.570801,10,Principal,3,77,54,55,2,1,17,19,140,180,40,260,260,260,100,1,2,0,80,40,29.16,157.24001,188,30.759995,1,low,0,0,,,,,
16,6,111017_1315,82.570801,10,Principal,4,54,55,56,2,1,10,16,250,280,30,440,440,380,200,1,2,0,60,40,60.5,271.5,300.79999,29.299988,.75,high,0,0,,,,,
16,7,111017_1315,82.570801,10,Principal,1,70,90,91,2,1,18,20,390,470,80,560,560,470,200,1,2,0,90,60,162,362,445.70001,83.700012,.75,high,0,0,,,,,
16,8,111017_1315,82.570801,10,Principal,6,55,63,64,2,1,9,11,240,250,10,360,360,280,200,1,2,0,40,40,79.379997,221.42,251.2,29.779999,.5,high,0,0,,,,,
16,9,111017_1315,82.570801,10,Principal,8,80,70,71,2,1,7,4,300,300,0,440,440,320,200,1,2,0,60,60,98,270,285.20001,15.200012,.5,high,0,0,,,,,
16,10,111017_1315,82.570801,10,Principal,5,74,90,100,2,1,2,12,350,520,170,520,520,520,200,1,2,0,80,40,162,326,520,194,1,high,0,0,,,,,
17,1,111017_1315,73.199997,10,Principal,9,75,50,30,2,1,20,8,135,130,-5,220,220,190,100,1,3,0,60,40,25,135,127,-8,.75,low,0,0,,,,,
17,2,111017_1315,73.199997,10,Principal,2,40,31,1,2,1,5,18,144,130,-14,280,280,235,100,1,3,0,90,60,9.6099997,146.19,101.35,-44.840004,.75,low,0,0,,,,,
17,3,111017_1315,73.199997,10,Principal,10,62,0,1,2,1,17,16,100,105,5,180,180,140,100,1,3,0,40,40,0,100,100.4,.40000153,.5,low,0,0,,,,,
17,4,111017_1315,73.199997,10,Principal,7,95,83,69,2,1,19,11,135,135,0,220,220,160,100,1,3,0,60,60,68.889999,130.71001,141.39999,10.689987,.5,low,0,0,,,,,
17,5,111017_1315,73.199997,10,Principal,3,82,80,72,2,1,2,3,165,213,48,260,260,260,100,1,3,0,80,40,64,164,215.2,51.199997,1,low,0,0,,,,,
17,6,111017_1315,73.199997,10,Principal,4,54,83,75,2,1,1,12,255,320,65,440,440,380,200,1,3,0,60,40,137.78,261.42001,335,73.579987,.75,high,0,0,,,,,
17,7,111017_1315,73.199997,10,Principal,1,80,80,75,2,1,15,7,370,400,30,560,560,470,200,1,3,0,90,60,128,360,402.5,42.5,.75,high,0,0,,,,,
17,8,111017_1315,73.199997,10,Principal,6,63,1,1,2,1,10,13,215,210,-5,360,360,280,200,1,3,0,40,40,.02,201.58,200.8,-.77999878,.5,high,0,0,,,,,
17,9,111017_1315,73.199997,10,Principal,8,55,30,1,2,1,4,6,242,210,-32,440,440,320,200,1,3,0,60,60,18,254,201.2,-52.800003,.5,high,0,0,,,,,
17,10,111017_1315,73.199997,10,Principal,5,75,80,79,2,1,9,14,324,456,132,520,520,520,200,1,3,0,80,40,128,328,452.79999,124.79999,1,high,0,0,,,,,
18,1,111017_1315,42.540001,10,Agent,9,40,55,60,1,1,13,16,80,145,65,220,220,190,100,1,3,30,60,40,30.25,,,,.75,low,0,0,,,,,
18,2,111017_1315,42.540001,10,Agent,2,25,30,15,2,1,4,2,170,150,-20,280,280,235,100,1,3,30,90,60,9,,,,.75,low,0,0,,,,,
18,3,111017_1315,42.540001,10,Agent,10,75,51,64,2,1,9,17,100,130,30,180,180,140,100,1,3,30,40,40,26.01,,,,.5,low,0,0,,,,,
18,4,111017_1315,42.540001,10,Agent,7,51,40,50,2,1,10,3,160,130,-30,220,220,160,100,1,3,30,60,60,16,,,,.5,low,0,0,,,,,
18,5,111017_1315,42.540001,10,Agent,3,70,0,1,2,1,5,8,100,101,1,260,260,260,100,1,3,30,80,40,0,,,,1,low,0,0,,,,,
18,6,111017_1315,42.540001,10,Agent,4,25,54,55,2,1,12,18,300,250,-50,440,440,380,200,1,3,30,60,40,58.32,,,,.75,high,0,0,,,,,
18,7,111017_1315,42.540001,10,Agent,1,50,90,1,2,1,11,20,390,201,-189,560,560,470,200,1,3,30,90,60,162,,,,.75,high,0,0,,,,,
18,8,111017_1315,42.540001,10,Agent,6,40,45,50,2,1,7,1,222,200,-22,360,360,280,200,1,3,30,40,40,40.5,,,,.5,high,0,0,,,,,
18,9,111017_1315,42.540001,10,Agent,8,70,77,77,2,1,14,6,300,300,0,440,440,320,200,1,3,30,60,60,118.58,,,,.5,high,0,0,,,,,
18,10,111017_1315,42.540001,10,Agent,5,50,50,40,2,1,15,19,400,400,0,520,520,520,200,1,3,30,80,40,50,,,,1,high,0,0,,,,,
19,1,111017_1315,93.637199,10,Agent,9,20,54,55,2,1,18,12,130,130,0,220,220,190,100,1,4,0,60,40,29.16,,,,.75,low,0,0,,,,,
19,2,111017_1315,93.637199,10,Agent,2,60,40,60,2,1,10,8,180,180,0,280,280,235,100,1,4,0,90,60,16,,,,.75,low,0,0,,,,,
19,3,111017_1315,93.637199,10,Agent,10,20,0,1,2,1,3,17,120,110,-10,180,180,140,100,1,4,0,40,40,0,,,,.5,low,0,0,,,,,
19,4,111017_1315,93.637199,10,Agent,7,45,81,85,2,1,11,13,120,145,25,220,220,160,100,1,4,0,60,60,65.610001,,,,.5,low,0,0,,,,,
19,5,111017_1315,93.637199,10,Agent,3,10,50,50,2,1,14,16,180,180,0,260,260,260,100,1,4,0,80,40,25,,,,1,low,0,0,,,,,
19,6,111017_1315,93.637199,10,Agent,4,80,40,50,2,1,2,5,250,280,30,440,440,380,200,1,4,0,60,40,32,,,,.75,high,0,0,,,,,
19,7,111017_1315,93.637199,10,Agent,1,50,88,81,2,1,9,1,370,400,30,560,560,470,200,1,4,0,90,60,154.88,,,,.75,high,0,0,,,,,
19,8,111017_1315,93.637199,10,Agent,6,54,0,1,2,1,6,20,210,220,10,360,360,280,200,1,4,0,40,40,0,,,,.5,high,0,0,,,,,
19,9,111017_1315,93.637199,10,Agent,8,60,65,70,2,1,19,15,280,280,0,440,440,320,200,1,4,0,60,60,84.5,,,,.5,high,0,0,,,,,
19,10,111017_1315,93.637199,10,Agent,5,1,80,1,2,1,4,7,325,200,-125,520,520,520,200,1,4,0,80,40,128,,,,1,high,0,0,,,,,
20,1,111017_1315,53.580002,10,Agent,9,70,65,50,2,1,18,8,110,146,36,220,220,190,100,1,4,0,60,40,42.25,,,,.75,low,0,0,,,,,
20,2,111017_1315,53.580002,10,Agent,2,84,79,1,2,1,6,17,160,105,-55,280,280,235,100,1,4,0,90,60,62.41,,,,.75,low,0,0,,,,,
20,3,111017_1315,53.580002,10,Agent,10,70,61,63,2,1,1,5,110,120,10,180,180,140,100,1,4,0,40,40,37.209999,,,,.5,low,0,0,,,,,
20,4,111017_1315,53.580002,10,Agent,7,77,77,78,2,1,10,11,140,140,0,220,220,160,100,1,4,0,60,60,59.290001,,,,.5,low,0,0,,,,,
20,5,111017_1315,53.580002,10,Agent,3,78,80,1,2,2,3,4,140,105,-35,260,260,260,100,1,4,0,80,40,64,,,,1,low,0,0,,,,,
20,6,111017_1315,53.580002,10,Agent,4,73,0,1,2,1,16,2,200,205,5,440,440,380,200,1,4,0,60,40,0,,,,.75,high,0,0,,,,,
20,7,111017_1315,53.580002,10,Agent,1,80,50,40,2,1,9,19,300,270,-30,560,560,470,200,1,4,0,90,60,50,,,,.75,high,0,0,,,,,
20,8,111017_1315,53.580002,10,Agent,6,70,35,35,2,1,20,13,210,230,20,360,360,280,200,1,4,0,40,40,24.5,,,,.5,high,0,0,,,,,
20,9,111017_1315,53.580002,10,Agent,8,77,60,80,2,1,14,12,250,280,30,440,440,320,200,1,4,0,60,60,72,,,,.5,high,0,0,,,,,
20,10,111017_1315,53.580002,10,Agent,5,74,86,80,2,1,7,15,250,400,150,520,520,520,200,1,4,0,80,40,147.92,,,,1,high,0,0,,,,,
21,1,111017_1315,68.243401,10,Agent,9,0,0,1,2,1,19,18,100,101,1,220,220,190,100,1,2,0,60,40,0,,,,.75,low,0,0,,,,,
21,2,111017_1315,68.243401,10,Agent,2,0,55,67,2,1,4,17,150,170,20,280,280,235,100,1,2,0,90,60,30.25,,,,.75,low,0,0,,,,,
21,3,111017_1315,68.243401,10,Agent,10,0,63,64,2,1,6,11,100,120,20,180,180,140,100,1,2,0,40,40,39.689999,,,,.5,low,0,0,,,,,
21,4,111017_1315,68.243401,10,Agent,7,75,64,80,2,1,2,1,120,150,30,220,220,160,100,1,2,0,60,60,40.959999,,,,.5,low,0,0,,,,,
21,5,111017_1315,68.243401,10,Agent,3,0,35,1,1,1,14,20,135,100,-35,260,260,260,100,1,2,0,80,40,12.25,,,,1,low,0,0,,,,,
21,6,111017_1315,68.243401,10,Agent,4,0,70,70,2,1,9,7,250,300,50,440,440,380,200,1,2,0,60,40,98,,,,.75,high,0,0,,,,,
21,7,111017_1315,68.243401,10,Agent,1,0,70,75,2,1,12,8,380,400,20,560,560,470,200,1,2,0,90,60,98,,,,.75,high,0,0,,,,,
21,8,111017_1315,68.243401,10,Agent,6,0,70,50,2,2,5,3,150,230,80,360,360,280,200,1,2,0,40,40,98,,,,.5,high,0,0,,,,,
21,9,111017_1315,68.243401,10,Agent,8,75,75,1,2,1,13,16,260,205,-55,440,440,320,200,1,2,0,60,60,112.5,,,,.5,high,0,0,,,,,
21,10,111017_1315,68.243401,10,Agent,5,0,100,1,1,1,10,15,320,200,-120,520,520,520,200,1,2,0,80,40,200,,,,1,high,0,0,,,,,
22,1,111017_1315,56.16,10,Agent,9,50,32,30,2,1,7,16,130,140,10,220,220,190,100,1,3,0,60,40,10.24,,,,.75,low,0,0,,,,,
22,2,111017_1315,56.16,10,Agent,2,70,10,1,2,1,3,2,100,100,0,280,280,235,100,1,3,0,90,60,1,,,,.75,low,0,0,,,,,
22,3,111017_1315,56.16,10,Agent,10,1,48,70,2,1,6,20,90,130,40,180,180,140,100,1,3,0,40,40,23.040001,,,,.5,low,0,0,,,,,
22,4,111017_1315,56.16,10,Agent,7,80,0,1,2,1,10,19,100,101,1,220,220,160,100,1,3,0,60,60,0,,,,.5,low,0,0,,,,,
22,5,111017_1315,56.16,10,Agent,3,1,90,1,1,1,15,4,170,101,-69,260,260,260,100,1,3,0,80,40,81,,,,1,low,0,0,,,,,
22,6,111017_1315,56.16,10,Agent,4,65,85,90,2,1,14,8,260,340,80,440,440,380,200,1,3,0,60,40,144.5,,,,.75,high,0,0,,,,,
22,7,111017_1315,56.16,10,Agent,1,70,67,68,2,1,5,18,300,350,50,560,560,470,200,1,3,0,90,60,89.779999,,,,.75,high,0,0,,,,,
22,8,111017_1315,56.16,10,Agent,6,60,30,1,2,1,17,12,210,200,-10,360,360,280,200,1,3,0,40,40,18,,,,.5,high,0,0,,,,,
22,9,111017_1315,56.16,10,Agent,8,80,63,63,2,1,13,9,200,260,60,440,440,320,200,1,3,0,60,60,79.379997,,,,.5,high,0,0,,,,,
22,10,111017_1315,56.16,10,Agent,5,80,50,50,1,1,11,1,390,460,70,520,520,520,200,1,3,0,80,40,50,,,,1,high,0,0,,,,,
23,1,111017_1315,63.220001,10,Agent,9,50,55,30,2,1,7,12,175,140,-35,220,220,190,100,1,1,0,60,40,30.25,,,,.75,low,0,0,,,,,
23,2,111017_1315,63.220001,10,Agent,2,66,55,55,2,1,17,10,125,170,45,280,280,235,100,1,1,0,90,60,30.25,,,,.75,low,0,0,,,,,
23,3,111017_1315,63.220001,10,Agent,10,45,0,1,2,1,19,11,101,101,0,180,180,140,100,1,1,0,40,40,0,,,,.5,low,0,0,,,,,
23,4,111017_1315,63.220001,10,Agent,7,55,30,45,2,1,20,13,140,130,-10,220,220,160,100,1,1,0,60,60,9,,,,.5,low,0,0,,,,,
23,5,111017_1315,63.220001,10,Agent,3,0,78,70,1,2,1,9,110,170,60,260,260,260,100,1,1,0,80,40,60.84,,,,1,low,0,0,,,,,
23,6,111017_1315,63.220001,10,Agent,4,54,80,1,2,1,16,6,270,200,-70,440,440,380,200,1,1,0,60,40,128,,,,.75,high,0,0,,,,,
23,7,111017_1315,63.220001,10,Agent,1,50,64,60,2,1,3,2,200,275,75,560,560,470,200,1,1,0,90,60,81.919998,,,,.75,high,0,0,,,,,
23,8,111017_1315,63.220001,10,Agent,6,63,63,63,2,1,4,18,255,230,-25,360,360,280,200,1,1,0,40,40,79.379997,,,,.5,high,0,0,,,,,
23,9,111017_1315,63.220001,10,Agent,8,47,38,40,2,1,5,15,290,260,-30,440,440,320,200,1,1,0,60,60,28.879999,,,,.5,high,0,0,,,,,
23,10,111017_1315,63.220001,10,Agent,5,70,94,1,2,1,8,14,201,210,9,520,520,520,200,1,1,0,80,40,176.72,,,,1,high,0,0,,,,,
24,1,111017_1315,82.5,10,Agent,9,55,56,80,2,1,14,16,100,160,60,220,220,190,100,1,3,0,60,40,31.360001,,,,.75,low,0,0,,,,,
24,2,111017_1315,82.5,10,Agent,2,55,91,91,2,1,13,6,190,200,10,280,280,235,100,1,3,0,90,60,82.809998,,,,.75,low,0,0,,,,,
24,3,111017_1315,82.5,10,Agent,10,63,55,55,2,1,20,3,110,120,10,180,180,140,100,1,3,0,40,40,30.25,,,,.5,low,0,0,,,,,
24,4,111017_1315,82.5,10,Agent,7,75,65,75,2,1,8,11,120,135,15,220,220,160,100,1,3,0,60,60,42.25,,,,.5,low,0,0,,,,,
24,5,111017_1315,82.5,10,Agent,3,77,54,55,2,1,9,10,180,160,-20,260,260,260,100,1,3,0,80,40,29.16,,,,1,low,0,0,,,,,
24,6,111017_1315,82.5,10,Agent,4,66,63,54,1,1,1,18,230,270,40,440,440,380,200,1,3,0,60,40,79.379997,,,,.75,high,0,0,,,,,
24,7,111017_1315,82.5,10,Agent,1,70,0,1,2,1,17,15,200,250,50,560,560,470,200,1,3,0,90,60,0,,,,.75,high,0,0,,,,,
24,8,111017_1315,82.5,10,Agent,6,63,65,60,2,1,19,4,220,245,25,360,360,280,200,1,3,0,40,40,84.5,,,,.5,high,0,0,,,,,
24,9,111017_1315,82.5,10,Agent,8,55,60,70,2,1,12,2,200,260,60,440,440,320,200,1,3,0,60,60,72,,,,.5,high,0,0,,,,,
24,10,111017_1315,82.5,10,Agent,5,80,70,40,2,2,7,5,350,400,50,520,520,520,200,1,3,0,80,40,98,,,,1,high,0,0,,,,,
25,1,111017_1315,67.419403,10,Agent,9,73,54,1,2,1,4,5,123,140,17,220,220,190,100,1,2,0,60,40,29.16,,,,.75,low,0,0,,,,,
25,2,111017_1315,67.419403,10,Agent,2,72,70,70,2,1,13,12,120,180,60,280,280,235,100,1,2,0,90,60,49,,,,.75,low,0,0,,,,,
25,3,111017_1315,67.419403,10,Agent,10,75,50,60,2,1,7,16,110,120,10,180,180,140,100,1,2,0,40,40,25,,,,.5,low,0,0,,,,,
25,4,111017_1315,67.419403,10,Agent,7,48,40,70,2,1,8,20,160,135,-25,220,220,160,100,1,2,0,60,60,16,,,,.5,low,0,0,,,,,
25,5,111017_1315,67.419403,10,Agent,3,82,80,72,2,1,18,6,125,180,55,260,260,260,100,1,2,0,80,40,64,,,,1,low,0,0,,,,,
25,6,111017_1315,67.419403,10,Agent,4,95,80,85,2,1,17,3,180,300,120,440,440,380,200,1,2,0,60,40,128,,,,.75,high,0,0,,,,,
25,7,111017_1315,67.419403,10,Agent,1,90,86,86,2,1,9,11,300,380,80,560,560,470,200,1,2,0,90,60,147.92,,,,.75,high,0,0,,,,,
25,8,111017_1315,67.419403,10,Agent,6,55,63,64,2,1,15,19,190,230,40,360,360,280,200,1,2,0,40,40,79.379997,,,,.5,high,0,0,,,,,
25,9,111017_1315,67.419403,10,Agent,8,51,77,78,2,1,14,2,200,280,80,440,440,320,200,1,2,0,60,60,118.58,,,,.5,high,0,0,,,,,
25,10,111017_1315,67.419403,10,Agent,5,88,0,1,2,1,10,1,200,200,0,520,520,520,200,1,2,0,80,40,0,,,,1,high,0,0,,,,,
26,1,111017_1315,89.160004,10,Agent,9,54,30,40,2,1,7,1,120,120,0,220,220,190,100,1,2,0,60,40,9,,,,.75,low,0,0,,,,,
26,2,111017_1315,89.160004,10,Agent,2,69,67,68,2,1,13,16,120,150,30,280,280,235,100,1,2,0,90,60,44.889999,,,,.75,low,0,0,,,,,
26,3,111017_1315,89.160004,10,Agent,10,63,45,70,2,1,5,10,80,110,30,180,180,140,100,1,2,0,40,40,20.25,,,,.5,low,0,0,,,,,
26,4,111017_1315,89.160004,10,Agent,7,76,77,77,2,1,20,11,80,120,40,220,220,160,100,1,2,0,60,60,59.290001,,,,.5,low,0,0,,,,,
26,5,111017_1315,89.160004,10,Agent,3,51,97,95,2,1,18,19,110,180,70,260,260,260,100,1,2,0,80,40,94.089996,,,,1,low,0,0,,,,,
26,6,111017_1315,89.160004,10,Agent,4,54,55,56,2,1,12,2,220,220,0,440,440,380,200,1,2,0,60,40,60.5,,,,.75,high,0,0,,,,,
26,7,111017_1315,89.160004,10,Agent,1,70,90,85,2,2,9,15,250,300,50,560,560,470,200,1,2,0,90,60,162,,,,.75,high,0,0,,,,,
26,8,111017_1315,89.160004,10,Agent,6,63,1,1,2,1,8,4,200,200,0,360,360,280,200,1,2,0,40,40,.02,,,,.5,high,0,0,,,,,
26,9,111017_1315,89.160004,10,Agent,8,51,64,60,2,1,17,6,220,260,40,440,440,320,200,1,2,0,60,60,81.919998,,,,.5,high,0,0,,,,,
26,10,111017_1315,89.160004,10,Agent,5,70,79,79,2,1,3,14,250,350,100,520,520,520,200,1,2,0,80,40,124.82,,,,1,high,0,0,,,,,
27,1,111017_1315,91.0644,10,Agent,9,54,50,51,2,1,3,5,140,130,-10,220,220,190,100,1,2,1,60,40,25,,,,.75,low,0,0,,,,,
27,2,111017_1315,91.0644,10,Agent,2,60,50,50,2,1,8,1,200,200,0,280,280,235,100,1,2,1,90,60,25,,,,.75,low,0,0,,,,,
27,3,111017_1315,91.0644,10,Agent,10,63,44,45,2,1,19,6,120,115,-5,180,180,140,100,1,2,1,40,40,19.360001,,,,.5,low,0,0,,,,,
27,4,111017_1315,91.0644,10,Agent,7,66,78,80,2,1,17,14,150,150,0,220,220,160,100,1,2,1,60,60,60.84,,,,.5,low,0,0,,,,,
27,5,111017_1315,91.0644,10,Agent,3,41,50,1,2,1,16,7,200,110,-90,260,260,260,100,1,2,1,80,40,25,,,,1,low,0,0,,,,,
27,6,111017_1315,91.0644,10,Agent,4,54,83,75,2,1,13,20,290,350,60,440,440,380,200,1,2,1,60,40,137.78,,,,.75,high,0,0,,,,,
27,7,111017_1315,91.0644,10,Agent,1,67,60,65,2,1,10,15,450,450,0,560,560,470,200,1,2,1,90,60,72,,,,.75,high,0,0,,,,,
27,8,111017_1315,91.0644,10,Agent,6,63,84,63,2,1,9,11,70,260,190,360,360,280,200,1,2,1,40,40,141.12,,,,.5,high,0,0,,,,,
27,9,111017_1315,91.0644,10,Agent,8,54,60,50,2,1,12,4,340,240,-100,440,440,320,200,1,2,1,60,60,72,,,,.5,high,0,0,,,,,
27,10,111017_1315,91.0644,10,Agent,5,32,90,1,2,1,2,18,340,280,-60,520,520,520,200,1,2,1,80,40,162,,,,1,high,0,0,,,,,
28,1,111017_1315,96.690002,10,Agent,9,75,50,30,2,1,2,11,120,115,-5,220,220,190,100,1,3,0,60,40,25,,,,.75,low,0,0,,,,,
28,2,111017_1315,96.690002,10,Agent,2,0,67,30,2,1,13,5,145,120,-25,280,280,235,100,1,3,0,90,60,44.889999,,,,.75,low,0,0,,,,,
28,3,111017_1315,96.690002,10,Agent,10,60,65,65,2,1,18,4,100,125,25,180,180,140,100,1,3,0,40,40,42.25,,,,.5,low,0,0,,,,,
28,4,111017_1315,96.690002,10,Agent,7,80,64,71,2,1,12,6,100,135,35,220,220,160,100,1,3,0,60,60,40.959999,,,,.5,low,0,0,,,,,
28,5,111017_1315,96.690002,10,Agent,3,50,20,10,2,2,7,17,105,115,10,260,260,260,100,1,3,0,80,40,4,,,,1,low,0,0,,,,,
28,6,111017_1315,96.690002,10,Agent,4,85,97,1,2,1,3,20,251,210,-41,440,440,380,200,1,3,0,60,40,188.17999,,,,.75,high,0,0,,,,,
28,7,111017_1315,96.690002,10,Agent,1,85,63,63,2,1,16,9,290,330,40,560,560,470,200,1,3,0,90,60,79.379997,,,,.75,high,0,0,,,,,
28,8,111017_1315,96.690002,10,Agent,6,80,67,70,2,1,10,19,200,255,55,360,360,280,200,1,3,0,40,40,89.779999,,,,.5,high,0,0,,,,,
28,9,111017_1315,96.690002,10,Agent,8,85,70,70,2,1,8,14,285,265,-20,440,440,320,200,1,3,0,60,60,98,,,,.5,high,0,0,,,,,
28,10,111017_1315,96.690002,10,Agent,5,85,50,46,2,1,1,15,290,370,80,520,520,520,200,1,3,0,80,40,50,,,,1,high,0,0,,,,,
29,1,111017_1315,49.709202,10,Agent,9,100,97,1,2,1,10,8,70,120,50,220,220,190,100,1,4,0,60,40,94.089996,,,,.75,low,0,0,,,,,
29,2,111017_1315,49.709202,10,Agent,2,70,35,45,2,1,20,1,170,150,-20,280,280,235,100,1,4,0,90,60,12.25,,,,.75,low,0,0,,,,,
29,3,111017_1315,49.709202,10,Agent,10,1,60,70,2,1,9,3,100,120,20,180,180,140,100,1,4,0,40,40,36,,,,.5,low,0,0,,,,,
29,4,111017_1315,49.709202,10,Agent,7,95,83,69,2,1,2,12,100,130,30,220,220,160,100,1,4,0,60,60,68.889999,,,,.5,low,0,0,,,,,
29,5,111017_1315,49.709202,10,Agent,3,100,89,1,1,1,5,16,140,135,-5,260,260,260,100,1,4,0,80,40,79.209999,,,,1,low,0,0,,,,,
29,6,111017_1315,49.709202,10,Agent,4,100,72,70,2,1,14,13,200,300,100,440,440,380,200,1,4,0,60,40,103.68,,,,.75,high,0,0,,,,,
29,7,111017_1315,49.709202,10,Agent,1,100,65,80,2,1,7,11,400,400,0,560,560,470,200,1,4,0,90,60,84.5,,,,.75,high,0,0,,,,,
29,8,111017_1315,49.709202,10,Agent,6,80,54,80,2,1,17,19,200,240,40,360,360,280,200,1,4,0,40,40,58.32,,,,.5,high,0,0,,,,,
29,9,111017_1315,49.709202,10,Agent,8,70,80,70,2,1,18,4,200,270,70,440,440,320,200,1,4,0,60,60,128,,,,.5,high,0,0,,,,,
29,10,111017_1315,49.709202,10,Agent,5,100,63,1,1,1,15,6,220,300,80,520,520,520,200,1,4,0,80,40,79.379997,,,,1,high,0,0,,,,,
30,1,111017_1315,92.034599,10,Agent,9,51,67,60,2,1,14,15,110,135,25,220,220,190,100,1,3,0,60,40,44.889999,,,,.75,low,0,0,,,,,
30,2,111017_1315,92.034599,10,Agent,2,65,67,67,2,1,3,6,150,160,10,280,280,235,100,1,3,0,90,60,44.889999,,,,.75,low,0,0,,,,,
30,3,111017_1315,92.034599,10,Agent,10,62,0,1,2,1,20,7,120,115,-5,180,180,140,100,1,3,0,40,40,0,,,,.5,low,0,0,,,,,
30,4,111017_1315,92.034599,10,Agent,7,44,97,77,2,1,13,11,110,140,30,220,220,160,100,1,3,0,60,60,94.089996,,,,.5,low,0,0,,,,,
30,5,111017_1315,92.034599,10,Agent,3,44,95,1,2,2,17,16,150,140,-10,260,260,260,100,1,3,0,80,40,90.25,,,,1,low,0,0,,,,,
30,6,111017_1315,92.034599,10,Agent,4,50,30,75,2,1,8,19,300,270,-30,440,440,380,200,1,3,0,60,40,18,,,,.75,high,0,0,,,,,
30,7,111017_1315,92.034599,10,Agent,1,70,90,91,2,1,9,5,260,360,100,560,560,470,200,1,3,0,90,60,162,,,,.75,high,0,0,,,,,
30,8,111017_1315,92.034599,10,Agent,6,51,89,1,2,1,18,10,160,230,70,360,360,280,200,1,3,0,40,40,158.42,,,,.5,high,0,0,,,,,
30,9,111017_1315,92.034599,10,Agent,8,52,40,40,2,1,1,2,260,250,-10,440,440,320,200,1,3,0,60,60,32,,,,.5,high,0,0,,,,,
30,10,111017_1315,92.034599,10,Agent,5,42,78,50,2,2,12,4,280,320,40,520,520,520,200,1,3,0,80,40,121.68,,,,1,high,0,0,,,,,
31,1,111017_1315,98.0466,10,Agent,9,69,77,58,2,2,10,13,80,130,50,220,220,190,100,1,3,0,60,40,59.290001,,,,.75,low,0,0,,,,,
31,2,111017_1315,98.0466,10,Agent,2,89,75,75,2,1,19,18,170,220,50,280,280,235,100,1,3,0,90,60,56.25,,,,.75,low,0,0,,,,,
31,3,111017_1315,98.0466,10,Agent,10,29,78,63,2,1,3,8,100,110,10,180,180,140,100,1,3,0,40,40,60.84,,,,.5,low,0,0,,,,,
31,4,111017_1315,98.0466,10,Agent,7,80,69,65,2,1,12,9,100,120,20,220,220,160,100,1,3,0,60,60,47.610001,,,,.5,low,0,0,,,,,
31,5,111017_1315,98.0466,10,Agent,3,90,0,1,2,1,14,2,140,160,20,260,260,260,100,1,3,0,80,40,0,,,,1,low,0,0,,,,,
31,6,111017_1315,98.0466,10,Agent,4,79,89,1,2,1,1,16,210,210,0,440,440,380,200,1,3,0,60,40,158.42,,,,.75,high,0,0,,,,,
31,7,111017_1315,98.0466,10,Agent,1,80,80,75,2,1,17,5,400,350,-50,560,560,470,200,1,3,0,90,60,128,,,,.75,high,0,0,,,,,
31,8,111017_1315,98.0466,10,Agent,6,80,70,71,2,1,4,6,170,230,60,360,360,280,200,1,3,0,40,40,98,,,,.5,high,0,0,,,,,
31,9,111017_1315,98.0466,10,Agent,8,80,55,55,2,1,15,20,250,300,50,440,440,320,200,1,3,0,60,60,60.5,,,,.5,high,0,0,,,,,
31,10,111017_1315,98.0466,10,Agent,5,74,90,100,2,1,11,7,345,520,175,520,520,520,200,1,3,0,80,40,162,,,,1,high,0,0,,,,,
32,1,111017_1315,89.339996,10,Agent,9,0,90,1,2,1,2,6,100,110,10,220,220,190,100,1,3,2,60,40,81,,,,.75,low,0,0,,,,,
32,2,111017_1315,89.339996,10,Agent,2,0,50,51,2,1,9,3,150,150,0,280,280,235,100,1,3,2,90,60,25,,,,.75,low,0,0,,,,,
32,3,111017_1315,89.339996,10,Agent,10,0,42,20,2,1,13,15,100,110,10,180,180,140,100,1,3,2,40,40,17.639999,,,,.5,low,0,0,,,,,
32,4,111017_1315,89.339996,10,Agent,7,0,2,35,2,1,8,16,100,120,20,220,220,160,100,1,3,2,60,60,.039999999,,,,.5,low,0,0,,,,,
32,5,111017_1315,89.339996,10,Agent,3,0,100,70,2,1,18,5,160,150,-10,260,260,260,100,1,3,2,80,40,100,,,,1,low,0,0,,,,,
32,6,111017_1315,89.339996,10,Agent,4,75,85,90,2,1,12,17,180,300,120,440,440,380,200,1,3,2,60,40,144.5,,,,.75,high,0,0,,,,,
32,7,111017_1315,89.339996,10,Agent,1,75,95,67,2,1,4,14,300,380,80,560,560,470,200,1,3,2,90,60,180.5,,,,.75,high,0,0,,,,,
32,8,111017_1315,89.339996,10,Agent,6,0,20,32,2,1,1,11,220,220,0,360,360,280,200,1,3,2,40,40,8,,,,.5,high,0,0,,,,,
32,9,111017_1315,89.339996,10,Agent,8,1,60,60,2,1,10,20,200,260,60,440,440,320,200,1,3,2,60,60,72,,,,.5,high,0,0,,,,,
32,10,111017_1315,89.339996,10,Agent,5,75,80,79,2,1,19,7,250,420,170,520,520,520,200,1,3,2,80,40,128,,,,1,high,0,0,,,,,
33,1,111017_1315,82.823402,10,Agent,9,0,64,49,2,1,4,3,140,150,10,220,220,190,100,1,3,0,60,40,40.959999,,,,.75,low,0,0,,,,,
33,2,111017_1315,82.823402,10,Agent,2,40,31,1,2,1,6,20,170,100,-70,280,280,235,100,1,3,0,90,60,9.6099997,,,,.75,low,0,0,,,,,
33,3,111017_1315,82.823402,10,Agent,10,40,60,76,2,1,18,11,120,135,15,180,180,140,100,1,3,0,40,40,36,,,,.5,low,0,0,,,,,
33,4,111017_1315,82.823402,10,Agent,7,90,90,1,2,1,16,12,130,100,-30,220,220,160,100,1,3,0,60,60,81,,,,.5,low,0,0,,,,,
33,5,111017_1315,82.823402,10,Agent,3,0,50,51,2,1,10,1,170,200,30,260,260,260,100,1,3,0,80,40,25,,,,1,low,0,0,,,,,
33,6,111017_1315,82.823402,10,Agent,4,0,48,30,2,1,15,5,250,250,0,440,440,380,200,1,3,0,60,40,46.080002,,,,.75,high,0,0,,,,,
33,7,111017_1315,82.823402,10,Agent,1,100,76,50,2,1,19,13,350,440,90,560,560,470,200,1,3,0,90,60,115.52,,,,.75,high,0,0,,,,,
33,8,111017_1315,82.823402,10,Agent,6,0,60,60,2,1,8,9,260,250,-10,360,360,280,200,1,3,0,40,40,72,,,,.5,high,0,0,,,,,
33,9,111017_1315,82.823402,10,Agent,8,80,70,71,2,1,7,17,300,300,0,440,440,320,200,1,3,0,60,60,98,,,,.5,high,0,0,,,,,
33,10,111017_1315,82.823402,10,Agent,5,100,90,90,1,1,14,2,300,450,150,520,520,520,200,1,3,0,80,40,162,,,,1,high,0,0,,,,,
34,1,111017_1315,40.659599,10,Agent,9,50,20,30,2,1,13,8,120,130,10,220,220,190,100,1,2,0,60,40,4,,,,.75,low,0,0,,,,,
34,2,111017_1315,40.659599,10,Agent,2,0,85,1,1,1,12,9,160,150,-10,280,280,235,100,1,2,0,90,60,72.25,,,,.75,low,0,0,,,,,
34,3,111017_1315,40.659599,10,Agent,10,50,0,1,2,1,10,7,120,120,0,180,180,140,100,1,2,0,40,40,0,,,,.5,low,0,0,,,,,
34,4,111017_1315,40.659599,10,Agent,7,50,66,84,2,1,4,6,130,150,20,220,220,160,100,1,2,0,60,60,43.560001,,,,.5,low,0,0,,,,,
34,5,111017_1315,40.659599,10,Agent,3,50,60,50,1,1,20,15,160,220,60,260,260,260,100,1,2,0,80,40,36,,,,1,low,0,0,,,,,
34,6,111017_1315,40.659599,10,Agent,4,50,72,80,2,1,17,18,300,360,60,440,440,380,200,1,2,0,60,40,103.68,,,,.75,high,0,0,,,,,
34,7,111017_1315,40.659599,10,Agent,1,55,38,40,2,1,3,2,380,320,-60,560,560,470,200,1,2,0,90,60,28.879999,,,,.75,high,0,0,,,,,
34,8,111017_1315,40.659599,10,Agent,6,50,63,64,2,1,16,5,240,250,10,360,360,280,200,1,2,0,40,40,79.379997,,,,.5,high,0,0,,,,,
34,9,111017_1315,40.659599,10,Agent,8,55,30,1,2,1,14,1,320,240,-80,440,440,320,200,1,2,0,60,60,18,,,,.5,high,0,0,,,,,
34,10,111017_1315,40.659599,10,Agent,5,60,90,1,1,1,19,11,200,320,120,520,520,520,200,1,2,0,80,40,162,,,,1,high,0,0,,,,,
35,1,111021_1315,59.099998,10,Principal,2,24,50,40,2,1,11,14,160,140,-20,220,220,190,100,1,3,0,60,40,25,135,136,1,.75,low,0,0,,,,,
35,2,111021_1315,59.099998,10,Principal,6,60,70,55,2,1,4,8,200,200,0,280,280,235,100,1,3,0,90,60,49,177,174.25,-2.75,.75,low,0,0,,,,,
35,3,111021_1315,59.099998,10,Principal,3,83,35,50,2,1,12,15,130,120,-10,180,180,140,100,1,3,0,40,40,12.25,115.75,120,4.25,.5,low,0,0,,,,,
35,4,111021_1315,59.099998,10,Principal,9,90,50,60,1,1,18,16,145,150,5,220,220,160,100,1,3,0,60,60,25,135,136,1,.5,low,0,0,,,,,
35,5,111021_1315,59.099998,10,Principal,4,51,60,50,1,1,20,6,170,210,40,260,260,260,100,1,3,0,80,40,36,160,180,20,1,low,0,0,,,,,
35,6,111021_1315,59.099998,10,Principal,1,59,35,50,1,1,5,17,320,340,20,440,440,380,200,1,3,0,60,40,24.5,259.5,290,30.5,.75,high,0,0,,,,,
35,7,111021_1315,59.099998,10,Principal,7,65,75,65,2,1,2,7,430,400,-30,560,560,470,200,1,3,0,90,60,112.5,357.5,375.5,18,.75,high,0,0,,,,,
35,8,111021_1315,59.099998,10,Principal,5,75,50,45,2,1,10,19,280,250,-30,360,360,280,200,1,3,0,40,40,50,230,236,6,.5,high,0,0,,,,,
35,9,111021_1315,59.099998,10,Principal,8,75,35,60,2,1,3,13,350,300,-50,440,440,320,200,1,3,0,60,60,24.5,259.5,272,12.5,.5,high,0,0,,,,,
35,10,111021_1315,59.099998,10,Principal,10,100,40,30,2,1,9,1,400,450,50,520,520,520,200,1,3,0,80,40,32,296,296,0,1,high,0,0,,,,,
36,1,111021_1315,64.739998,10,Principal,2,80,70,50,2,1,16,6,120,145,25,220,220,190,100,1,2,0,60,40,49,135,145,10,.75,low,0,0,,,,,
36,2,111021_1315,64.739998,10,Principal,6,0,80,75,2,1,19,10,195,195,0,280,280,235,100,1,2,0,90,60,64,180,201.25,21.25,.75,low,0,0,,,,,
36,3,111021_1315,64.739998,10,Principal,3,59,25,50,2,1,12,7,111,120,9,180,180,140,100,1,2,0,40,40,6.25,113.75,120,6.25,.5,low,0,0,,,,,
36,4,111021_1315,64.739998,10,Principal,9,100,80,60,2,1,1,17,123,133,10,220,220,160,100,1,2,0,60,60,64,132,136,4,.5,low,0,0,,,,,
36,5,111021_1315,64.739998,10,Principal,4,65,80,30,1,1,2,4,160,140,-20,260,260,260,100,1,2,0,80,40,64,164,148,-16,1,low,0,0,,,,,
36,6,111021_1315,64.739998,10,Principal,1,70,80,60,2,1,18,8,260,284,24,440,440,380,200,1,2,0,60,40,128,264,308,44,.75,high,0,0,,,,,
36,7,111021_1315,64.739998,10,Principal,7,55,60,50,2,1,11,20,300,335,35,560,560,470,200,1,2,0,90,60,72,344,335,-9,.75,high,0,0,,,,,
36,8,111021_1315,64.739998,10,Principal,5,58,60,40,2,1,14,5,222,245,23,360,360,280,200,1,2,0,40,40,72,224,232,8,.5,high,0,0,,,,,
36,9,111021_1315,64.739998,10,Principal,8,71,70,40,2,1,13,15,290,248,-42,440,440,320,200,1,2,0,60,60,98,270,248,-22,.5,high,0,0,,,,,
36,10,111021_1315,64.739998,10,Principal,10,85,95,50,2,2,9,3,320,350,30,520,520,520,200,1,2,0,80,40,180.5,323.5,360,36.5,1,high,0,0,,,,,
37,1,111021_1315,54.4146,10,Principal,2,40,47,54,2,1,8,11,135,150,15,220,220,190,100,1,3,0,60,40,22.09,134.31,148.60001,14.290009,.75,low,0,0,,,,,
37,2,111021_1315,54.4146,10,Principal,6,100,49,50,2,1,10,17,180,177,-3,280,280,235,100,1,3,0,90,60,24.01,164.19,167.5,3.3099976,.75,low,0,0,,,,,
37,3,111021_1315,54.4146,10,Principal,3,60,55,60,2,1,20,6,110,126,16,180,180,140,100,1,3,0,40,40,30.25,113.75,124,10.25,.5,low,0,0,,,,,
37,4,111021_1315,54.4146,10,Principal,9,75,60,77,2,1,4,13,130,147,17,220,220,160,100,1,3,0,60,60,36,136,146.2,10.199997,.5,low,0,0,,,,,
37,5,111021_1315,54.4146,10,Principal,4,0,47,1,2,2,2,3,165,100,-65,260,260,260,100,1,3,0,80,40,22.09,153.11,101.6,-51.510002,1,low,0,0,,,,,
37,6,111021_1315,54.4146,10,Principal,1,0,48,1,2,1,1,7,262,200,-62,440,440,380,200,1,3,0,60,40,46.080002,269.12,201.8,-67.319992,.75,high,0,0,,,,,
37,7,111021_1315,54.4146,10,Principal,7,90,50,66,2,1,9,18,250,370,120,560,560,470,200,1,3,0,90,60,50,330,378.20001,48.200012,.75,high,0,0,,,,,
37,8,111021_1315,54.4146,10,Principal,5,55,44,60,2,1,15,16,240,250,10,360,360,280,200,1,3,0,40,40,38.720001,231.67999,248,16.320007,.5,high,0,0,,,,,
37,9,111021_1315,54.4146,10,Principal,8,74,58,78,2,1,5,12,253,300,47,440,440,320,200,1,3,0,60,60,67.279999,271.92001,293.60001,21.679993,.5,high,0,0,,,,,
37,10,111021_1315,54.4146,10,Principal,10,65,50,1,1,1,19,14,380,200,-180,520,520,520,200,1,3,0,80,40,50,310,203.2,-106.8,1,high,0,0,,,,,
38,1,111021_1315,61.111198,10,Principal,2,60,55,100,2,1,19,5,90,130,40,220,220,190,100,1,2,0,60,40,30.25,135.75,190,54.25,.75,low,0,0,,,,,
38,2,111021_1315,61.111198,10,Principal,6,80,60,65,2,1,11,9,200,210,10,280,280,235,100,1,2,0,90,60,36,172,187.75,15.75,.75,low,0,0,,,,,
38,3,111021_1315,61.111198,10,Principal,3,0,88,80,2,1,7,20,40,120,80,180,180,140,100,1,2,0,40,40,77.440002,92.959999,132,39.040001,.5,low,0,0,,,,,
38,4,111021_1315,61.111198,10,Principal,9,69,77,99,2,1,6,12,120,101,-19,220,220,160,100,1,2,0,60,60,59.290001,133.11,159.39999,26.289993,.5,low,0,0,,,,,
38,5,111021_1315,61.111198,10,Principal,4,95,80,100,1,2,17,4,180,250,70,260,260,260,100,1,2,0,80,40,64,164,260,96,1,low,0,0,,,,,
38,6,111021_1315,61.111198,10,Principal,1,100,57,55,2,1,8,18,280,290,10,440,440,380,200,1,2,0,60,40,64.980003,271.82001,299,27.179993,.75,high,0,0,,,,,
38,7,111021_1315,61.111198,10,Principal,7,100,78,100,2,1,14,13,240,201,-39,560,560,470,200,1,2,0,90,60,121.68,359.12,470,110.88,.75,high,0,0,,,,,
38,8,111021_1315,61.111198,10,Principal,5,50,76,100,2,1,10,1,200,270,70,360,360,280,200,1,2,0,40,40,115.52,206.08,280,73.919998,.5,high,0,0,,,,,
38,9,111021_1315,61.111198,10,Principal,8,70,80,99,2,1,15,2,270,260,-10,440,440,320,200,1,2,0,60,60,128,264,318.79999,54.799988,.5,high,0,0,,,,,
38,10,111021_1315,61.111198,10,Principal,10,60,77,44,2,2,3,16,82,250,168,520,520,520,200,1,2,0,80,40,118.58,327.82001,340.79999,12.97998,1,high,0,0,,,,,
39,1,111021_1315,49.98,10,Principal,2,52,60,50,2,1,14,17,100,140,40,220,220,190,100,1,4,0,60,40,36,136,145,9,.75,low,0,0,,,,,
39,2,111021_1315,49.98,10,Principal,6,54,90,80,2,1,13,6,150,180,30,280,280,235,100,1,4,0,90,60,81,181,208,27,.75,low,0,0,,,,,
39,3,111021_1315,49.98,10,Principal,3,0,64,50,2,1,3,8,90,120,30,180,180,140,100,1,4,0,40,40,40.959999,110.24,120,9.7600021,.5,low,0,0,,,,,
39,4,111021_1315,49.98,10,Principal,9,64,70,60,2,1,19,15,120,140,20,220,220,160,100,1,4,0,60,60,49,135,136,1,.5,low,0,0,,,,,
39,5,111021_1315,49.98,10,Principal,4,78,75,60,2,1,2,5,140,150,10,260,260,260,100,1,4,0,80,40,56.25,163.75,196,32.25,1,low,0,0,,,,,
39,6,111021_1315,49.98,10,Principal,1,100,40,70,2,1,4,1,230,300,70,440,440,380,200,1,4,0,60,40,32,264,326,62,.75,high,0,0,,,,,
39,7,111021_1315,49.98,10,Principal,7,89,80,60,2,1,10,12,250,260,10,560,560,470,200,1,4,0,90,60,128,360,362,2,.75,high,0,0,,,,,
39,8,111021_1315,49.98,10,Principal,5,75,50,10,2,1,11,7,220,260,40,360,360,280,200,1,4,0,40,40,50,230,208,-22,.5,high,0,0,,,,,
39,9,111021_1315,49.98,10,Principal,8,50,70,35,2,1,9,18,200,250,50,440,440,320,200,1,4,0,60,60,98,270,242,-28,.5,high,0,0,,,,,
39,10,111021_1315,49.98,10,Principal,10,0,80,50,2,1,16,20,250,300,50,520,520,520,200,1,4,0,80,40,128,328,360,32,1,high,0,0,,,,,
40,1,111021_1315,53.625,10,Principal,2,50,55,56,2,1,15,1,110,145,35,220,220,190,100,1,3,10,60,40,30.25,135.75,150.39999,14.649994,.75,low,0,0,,,,,
40,2,111021_1315,53.625,10,Principal,6,89,75,78,2,1,18,17,160,200,40,280,280,235,100,1,3,10,90,60,56.25,178.75,205.3,26.550003,.75,low,0,0,,,,,
40,3,111021_1315,53.625,10,Principal,3,70,73,60,2,1,13,9,90,132,42,180,180,140,100,1,3,10,40,40,53.290001,105.11,124,18.889999,.5,low,0,0,,,,,
40,4,111021_1315,53.625,10,Principal,9,50,77,78,2,1,8,20,110,145,35,220,220,160,100,1,3,10,60,60,59.290001,133.11,146.8,13.690002,.5,low,0,0,,,,,
40,5,111021_1315,53.625,10,Principal,4,71,70,10,1,2,6,19,130,101,-29,260,260,260,100,1,3,10,80,40,49,163,116,-47,1,low,0,0,,,,,
40,6,111021_1315,53.625,10,Principal,1,67,50,35,2,1,11,12,235,240,5,440,440,380,200,1,3,10,60,40,50,270,263,-7,.75,high,0,0,,,,,
40,7,111021_1315,53.625,10,Principal,7,69,67,68,2,1,2,14,335,325,-10,560,560,470,200,1,3,10,90,60,89.779999,351.42001,383.60001,32.179993,.75,high,0,0,,,,,
40,8,111021_1315,53.625,10,Principal,5,55,63,64,2,1,5,7,200,244,44,360,360,280,200,1,3,10,40,40,79.379997,221.42,251.2,29.779999,.5,high,0,0,,,,,
40,9,111021_1315,53.625,10,Principal,8,100,75,76,2,1,16,3,265,285,20,440,440,320,200,1,3,10,60,60,112.5,267.5,291.20001,23.700012,.5,high,0,0,,,,,
40,10,111021_1315,53.625,10,Principal,10,77,83,90,2,2,10,4,300,465,165,520,520,520,200,1,3,10,80,40,137.78,327.82001,488,160.17999,1,high,0,0,,,,,
41,1,111021_1315,62.689999,10,Principal,2,0,33,20,2,1,2,8,100,155,55,220,220,190,100,1,2,0,60,40,10.89,128.71001,118,-10.710007,.75,low,0,0,,,,,
41,2,111021_1315,62.689999,10,Principal,6,0,70,80,2,1,11,18,170,200,30,280,280,235,100,1,2,0,90,60,49,177,208,31,.75,low,0,0,,,,,
41,3,111021_1315,62.689999,10,Principal,3,54,30,30,2,1,14,1,130,110,-20,180,180,140,100,1,2,0,40,40,9,115,112,-3,.5,low,0,0,,,,,
41,4,111021_1315,62.689999,10,Principal,9,100,69,70,2,1,20,10,129,150,21,220,220,160,100,1,2,0,60,60,47.610001,135.19,142,6.8099976,.5,low,0,0,,,,,
41,5,111021_1315,62.689999,10,Principal,4,32,60,1,1,1,15,3,160,160,0,260,260,260,100,1,2,0,80,40,36,160,101.6,-58.400002,1,low,0,0,,,,,
41,6,111021_1315,62.689999,10,Principal,1,0,48,45,2,1,6,4,340,250,-90,440,440,380,200,1,2,0,60,40,46.080002,269.12,281,11.880005,.75,high,0,0,,,,,
41,7,111021_1315,62.689999,10,Principal,7,70,70,76,2,1,5,17,385,400,15,560,560,470,200,1,2,0,90,60,98,354,405.20001,51.200012,.75,high,0,0,,,,,
41,8,111021_1315,62.689999,10,Principal,5,64,60,40,2,1,12,9,199,250,51,360,360,280,200,1,2,0,40,40,72,224,232,8,.5,high,0,0,,,,,
41,9,111021_1315,62.689999,10,Principal,8,84,20,26,2,1,16,19,260,210,-50,440,440,320,200,1,2,0,60,60,8,240,231.2,-8.8000031,.5,high,0,0,,,,,
41,10,111021_1315,62.689999,10,Principal,10,50,80,1,2,1,13,7,350,380,30,520,520,520,200,1,2,0,80,40,128,328,203.2,-124.8,1,high,0,0,,,,,
42,1,111021_1315,66.419998,10,Principal,2,100,53,58,2,1,7,13,180,100,-80,220,220,190,100,1,4,17,60,40,28.09,135.50999,152.2,16.690002,.75,low,0,0,,,,,
42,2,111021_1315,66.419998,10,Principal,6,50,68,68,2,1,1,16,100,100,0,280,280,235,100,1,4,17,90,60,46.240002,176.16,191.8,15.639999,.75,low,0,0,,,,,
42,3,111021_1315,66.419998,10,Principal,3,0,59,70,2,1,20,5,66,140,74,180,180,140,100,1,4,17,40,40,34.810001,112.39,128,15.610001,.5,low,0,0,,,,,
42,4,111021_1315,66.419998,10,Principal,9,90,71,79,2,1,10,9,169,160,-9,220,220,160,100,1,4,17,60,60,50.41,134.78999,147.39999,12.610001,.5,low,0,0,,,,,
42,5,111021_1315,66.419998,10,Principal,4,80,23,1,2,1,8,12,95,100,5,260,260,260,100,1,4,17,80,40,5.29,131.50999,101.6,-29.909996,1,low,0,0,,,,,
42,6,111021_1315,66.419998,10,Principal,1,0,53,51,2,1,14,18,144,200,56,440,440,380,200,1,4,17,60,40,56.18,271.01999,291.79999,20.779999,.75,high,0,0,,,,,
42,7,111021_1315,66.419998,10,Principal,7,100,65,69,2,1,6,2,475,470,-5,560,560,470,200,1,4,17,90,60,84.5,349.5,386.29999,36.799988,.75,high,0,0,,,,,
42,8,111021_1315,66.419998,10,Principal,5,69,63,66,2,1,11,4,121,200,79,360,360,280,200,1,4,17,40,40,79.379997,221.42,252.8,31.380005,.5,high,0,0,,,,,
42,9,111021_1315,66.419998,10,Principal,8,67,75,80,2,1,17,19,327,320,-7,440,440,320,200,1,4,17,60,60,112.5,267.5,296,28.5,.5,high,0,0,,,,,
42,10,111021_1315,66.419998,10,Principal,10,50,70,1,1,1,15,3,421,201,-220,520,520,520,200,1,4,17,80,40,98,326,203.2,-122.8,1,high,0,0,,,,,
43,1,111021_1315,89.32,10,Principal,2,54,50,45,2,1,16,14,120,150,30,220,220,190,100,1,0,0,60,40,25,135,140.5,5.5,.75,low,0,0,,,,,
43,2,111021_1315,89.32,10,Principal,6,90,80,80,2,1,12,4,180,200,20,280,280,235,100,1,0,0,90,60,64,180,208,28,.75,low,0,0,,,,,
43,3,111021_1315,89.32,10,Principal,3,0,80,80,2,1,11,15,80,135,55,180,180,140,100,1,0,0,40,40,64,100,132,32,.5,low,0,0,,,,,
43,4,111021_1315,89.32,10,Principal,9,59,80,80,2,1,7,5,100,140,40,220,220,160,100,1,0,0,60,60,64,132,148,16,.5,low,0,0,,,,,
43,5,111021_1315,89.32,10,Principal,4,0,75,1,2,2,18,20,120,100,-20,260,260,260,100,1,0,0,80,40,56.25,163.75,101.6,-62.150002,1,low,0,0,,,,,
43,6,111021_1315,89.32,10,Principal,1,50,80,90,2,1,17,10,300,360,60,440,440,380,200,1,0,0,60,40,128,264,362,98,.75,high,0,0,,,,,
43,7,111021_1315,89.32,10,Principal,7,100,70,85,2,1,1,9,300,400,100,560,560,470,200,1,0,0,90,60,98,354,429.5,75.5,.75,high,0,0,,,,,
43,8,111021_1315,89.32,10,Principal,5,64,70,40,2,1,6,19,200,240,40,360,360,280,200,1,0,0,40,40,98,214,232,18,.5,high,0,0,,,,,
43,9,111021_1315,89.32,10,Principal,8,70,45,20,2,1,2,13,260,240,-20,440,440,320,200,1,0,0,60,60,40.5,267.5,224,-43.5,.5,high,0,0,,,,,
43,10,111021_1315,89.32,10,Principal,10,75,100,20,1,2,3,8,320,300,-20,520,520,520,200,1,0,0,80,40,200,320,264,-56,1,high,0,0,,,,,
44,1,111021_1315,52.200001,10,Principal,2,44,60,1,2,1,12,8,100,110,10,220,220,190,100,1,4,0,60,40,36,136,100.9,-35.099998,.75,low,0,0,,,,,
44,2,111021_1315,52.200001,10,Principal,6,78,67,67,2,1,10,6,190,180,-10,280,280,235,100,1,4,0,90,60,44.889999,175.71001,190.45,14.73999,.75,low,0,0,,,,,
44,3,111021_1315,52.200001,10,Principal,3,50,80,63,2,1,19,20,90,120,30,180,180,140,100,1,4,0,40,40,64,100,125.2,25.199997,.5,low,0,0,,,,,
44,4,111021_1315,52.200001,10,Principal,9,77,77,60,2,1,14,15,110,120,10,220,220,160,100,1,4,0,60,60,59.290001,133.11,136,2.8899994,.5,low,0,0,,,,,
44,5,111021_1315,52.200001,10,Principal,4,100,60,1,2,1,17,1,140,110,-30,260,260,260,100,1,4,0,80,40,36,160,101.6,-58.400002,1,low,0,0,,,,,
44,6,111021_1315,52.200001,10,Principal,1,94,54,55,2,1,16,11,250,300,50,440,440,380,200,1,4,0,60,40,58.32,271.28,299,27.720001,.75,high,0,0,,,,,
44,7,111021_1315,52.200001,10,Principal,7,90,70,100,2,1,9,13,300,350,50,560,560,470,200,1,4,0,90,60,98,354,470,116,.75,high,0,0,,,,,
44,8,111021_1315,52.200001,10,Principal,5,0,60,85,2,1,18,5,170,230,60,360,360,280,200,1,4,0,40,40,72,224,268,44,.5,high,0,0,,,,,
44,9,111021_1315,52.200001,10,Principal,8,0,81,80,2,1,4,3,250,250,0,440,440,320,200,1,4,0,60,60,131.22,263.17999,296,32.820007,.5,high,0,0,,,,,
44,10,111021_1315,52.200001,10,Principal,10,70,70,1,2,1,2,7,300,220,-80,520,520,520,200,1,4,0,80,40,98,326,203.2,-122.8,1,high,0,0,,,,,
45,1,111021_1315,55.0788,10,Principal,2,0,51,55,2,1,9,8,120,145,25,220,220,190,100,1,4,0,60,40,26.01,135.19,149.5,14.309998,.75,low,0,0,,,,,
45,2,111021_1315,55.0788,10,Principal,6,65,50,67,2,1,16,5,100,190,90,280,280,235,100,1,4,0,90,60,25,165,190.45,25.449997,.75,low,0,0,,,,,
45,3,111021_1315,55.0788,10,Principal,3,0,55,64,2,1,20,3,100,120,20,180,180,140,100,1,4,0,40,40,30.25,113.75,125.6,11.849998,.5,low,0,0,,,,,
45,4,111021_1315,55.0788,10,Principal,9,0,70,78,2,1,1,14,100,145,45,220,220,160,100,1,4,0,60,60,49,135,146.8,11.800003,.5,low,0,0,,,,,
45,5,111021_1315,55.0788,10,Principal,4,78,0,1,2,1,18,17,150,150,0,260,260,260,100,1,4,0,80,40,0,100,101.6,1.5999985,1,low,0,0,,,,,
45,6,111021_1315,55.0788,10,Principal,1,78,50,54,2,1,13,19,200,350,150,440,440,380,200,1,4,0,60,40,50,270,297.20001,27.200012,.75,high,0,0,,,,,
45,7,111021_1315,55.0788,10,Principal,7,54,55,68,2,1,15,12,300,400,100,560,560,470,200,1,4,0,90,60,60.5,337.5,383.60001,46.100006,.75,high,0,0,,,,,
45,8,111021_1315,55.0788,10,Principal,5,0,55,65,2,1,11,2,200,250,50,360,360,280,200,1,4,0,40,40,60.5,227.5,252,24.5,.5,high,0,0,,,,,
45,9,111021_1315,55.0788,10,Principal,8,70,32,78,2,1,6,10,200,300,100,440,440,320,200,1,4,0,60,60,20.48,256.32001,293.60001,37.279999,.5,high,0,0,,,,,
45,10,111021_1315,55.0788,10,Principal,10,0,32,1,2,1,7,4,190,200,10,520,520,520,200,1,4,0,80,40,20.48,281.92001,203.2,-78.720016,1,high,0,0,,,,,
46,1,111021_1315,56.880001,10,Principal,2,0,90,60,2,1,14,8,105,125,20,220,220,190,100,1,4,0,60,40,81,127,154,27,.75,low,0,0,,,,,
46,2,111021_1315,56.880001,10,Principal,6,50,90,80,2,1,18,1,130,175,45,280,280,235,100,1,4,0,90,60,81,181,208,27,.75,low,0,0,,,,,
46,3,111021_1315,56.880001,10,Principal,3,78,20,20,2,1,19,17,101,102,1,180,180,140,100,1,4,0,40,40,4,112,108,-4,.5,low,0,0,,,,,
46,4,111021_1315,56.880001,10,Principal,9,50,90,65,2,1,12,13,105,130,25,220,220,160,100,1,4,0,60,60,81,127,139,12,.5,low,0,0,,,,,
46,5,111021_1315,56.880001,10,Principal,4,54,90,80,1,1,10,11,120,210,90,260,260,260,100,1,4,0,80,40,81,163,228,65,1,low,0,0,,,,,
46,6,111021_1315,56.880001,10,Principal,1,51,95,70,2,1,7,4,220,285,65,440,440,380,200,1,4,0,60,40,180.5,247.5,326,78.5,.75,high,0,0,,,,,
46,7,111021_1315,56.880001,10,Principal,7,0,90,80,2,1,9,6,275,420,145,560,560,470,200,1,4,0,90,60,162,362,416,54,.75,high,0,0,,,,,
46,8,111021_1315,56.880001,10,Principal,5,60,1,1,2,1,16,3,201,210,9,360,360,280,200,1,4,0,40,40,.02,201.58,200.8,-.77999878,.5,high,0,0,,,,,
46,9,111021_1315,56.880001,10,Principal,8,95,90,80,2,1,20,5,250,280,30,440,440,320,200,1,4,0,60,60,162,254,296,42,.5,high,0,0,,,,,
46,10,111021_1315,56.880001,10,Principal,10,99,90,85,2,1,15,2,250,475,225,520,520,520,200,1,4,0,80,40,162,326,472,146,1,high,0,0,,,,,
47,1,111021_1315,87.959999,10,Principal,2,50,100,90,2,1,20,18,119,175,56,220,220,190,100,1,3,0,60,40,100,120,181,61,.75,low,0,0,,,,,
47,2,111021_1315,87.959999,10,Principal,6,68,100,50,2,1,10,9,179,170,-9,280,280,235,100,1,3,0,90,60,100,180,167.5,-12.5,.75,low,0,0,,,,,
47,3,111021_1315,87.959999,10,Principal,3,60,50,1,2,1,5,4,110,101,-9,180,180,140,100,1,3,0,40,40,25,115,100.4,-14.599998,.5,low,0,0,,,,,
47,4,111021_1315,87.959999,10,Principal,9,100,100,60,2,1,1,16,119,135,16,220,220,160,100,1,3,0,60,60,100,120,136,16,.5,low,0,0,,,,,
47,5,111021_1315,87.959999,10,Principal,4,77,100,50,2,1,3,15,159,150,-9,260,260,260,100,1,3,0,80,40,100,160,180,20,1,low,0,0,,,,,
47,6,111021_1315,87.959999,10,Principal,1,59,100,50,2,1,7,17,239,290,51,440,440,380,200,1,3,0,60,40,200,240,290,50,.75,high,0,0,,,,,
47,7,111021_1315,87.959999,10,Principal,7,0,100,93,2,1,11,13,359,440,81,560,560,470,200,1,3,0,90,60,200,360,451.10001,91.100006,.75,high,0,0,,,,,
47,8,111021_1315,87.959999,10,Principal,5,54,25,1,2,1,12,2,200,201,1,360,360,280,200,1,3,0,40,40,12.5,227.5,200.8,-26.699997,.5,high,0,0,,,,,
47,9,111021_1315,87.959999,10,Principal,8,70,100,40,1,1,6,8,239,250,11,440,440,320,200,1,3,0,60,60,200,240,248,8,.5,high,0,0,,,,,
47,10,111021_1315,87.959999,10,Principal,10,90,100,90,2,1,19,14,319,400,81,520,520,520,200,1,3,0,80,40,200,320,488,168,1,high,0,0,,,,,
48,1,111021_1315,93.434998,10,Principal,2,0,45,99,2,1,18,20,195,180,-15,220,220,190,100,1,2,0,60,40,20.25,133.75,189.10001,55.350006,.75,low,0,0,,,,,
48,2,111021_1315,93.434998,10,Principal,6,51,50,93,1,1,1,16,250,230,-20,280,280,235,100,1,2,0,90,60,25,165,225.55,60.550003,.75,low,0,0,,,,,
48,3,111021_1315,93.434998,10,Principal,3,22,40,96,1,1,6,3,155,135,-20,180,180,140,100,1,2,0,40,40,16,116,138.39999,22.399994,.5,low,0,0,,,,,
48,4,111021_1315,93.434998,10,Principal,9,78,45,98,2,1,7,8,190,150,-40,220,220,160,100,1,2,0,60,60,20.25,133.75,158.8,25.050003,.5,low,0,0,,,,,
48,5,111021_1315,93.434998,10,Principal,4,0,45,97,1,1,14,19,155,255,100,260,260,260,100,1,2,0,80,40,20.25,151.75,255.2,103.45,1,low,0,0,,,,,
48,6,111021_1315,93.434998,10,Principal,1,50,33,90,2,1,2,17,409,320,-89,440,440,380,200,1,2,0,60,40,21.780001,257.42001,362,104.57999,.75,high,0,0,,,,,
48,7,111021_1315,93.434998,10,Principal,7,100,25,85,2,1,5,13,540,465,-75,560,560,470,200,1,2,0,90,60,12.5,277.5,429.5,152,.75,high,0,0,,,,,
48,8,111021_1315,93.434998,10,Principal,5,0,30,89,2,1,12,9,335,200,-135,360,360,280,200,1,2,0,40,40,18,230,271.20001,41.200012,.5,high,0,0,,,,,
48,9,111021_1315,93.434998,10,Principal,8,30,35,95,1,1,11,15,410,315,-95,440,440,320,200,1,2,0,60,60,24.5,259.5,314,54.5,.5,high,0,0,,,,,
48,10,111021_1315,93.434998,10,Principal,10,59,45,75,1,1,4,10,470,515,45,520,520,520,200,1,2,0,80,40,40.5,303.5,440,136.5,1,high,0,0,,,,,
49,1,111021_1315,90.93,10,Principal,2,70,65,40,2,1,4,6,120,150,30,220,220,190,100,1,4,0,60,40,42.25,135.75,136,.25,.75,low,0,0,,,,,
49,2,111021_1315,90.93,10,Principal,6,64,40,55,2,1,17,3,135,180,45,280,280,235,100,1,4,0,90,60,16,156,174.25,18.25,.75,low,0,0,,,,,
49,3,111021_1315,90.93,10,Principal,3,58,50,1,2,1,12,2,100,120,20,180,180,140,100,1,4,0,40,40,25,115,100.4,-14.599998,.5,low,0,0,,,,,
49,4,111021_1315,90.93,10,Principal,9,65,85,70,2,1,18,13,130,125,-5,220,220,160,100,1,4,0,60,60,72.25,129.75,142,12.25,.5,low,0,0,,,,,
49,5,111021_1315,90.93,10,Principal,4,100,20,3,2,1,11,8,150,200,50,260,260,260,100,1,4,0,80,40,4,128,104.8,-23.199997,1,low,0,0,,,,,
49,6,111021_1315,90.93,10,Principal,1,70,25,10,2,1,5,20,300,270,-30,440,440,380,200,1,4,0,60,40,12.5,247.5,218,-29.5,.75,high,0,0,,,,,
49,7,111021_1315,90.93,10,Principal,7,100,91,90,2,1,1,10,360,450,90,560,560,470,200,1,4,0,90,60,165.62,361.98001,443,81.019989,.75,high,0,0,,,,,
49,8,111021_1315,90.93,10,Principal,5,0,31,1,2,1,9,14,250,280,30,360,360,280,200,1,4,0,40,40,19.219999,230.38,200.8,-29.580002,.5,high,0,0,,,,,
49,9,111021_1315,90.93,10,Principal,8,61,45,60,2,1,16,7,200,250,50,440,440,320,200,1,4,0,60,60,40.5,267.5,272,4.5,.5,high,0,0,,,,,
49,10,111021_1315,90.93,10,Principal,10,70,70,75,2,1,15,19,300,400,100,520,520,520,200,1,4,0,80,40,98,326,440,114,1,high,0,0,,,,,
50,1,111021_1315,79.739998,10,Principal,2,50,51,2,1,1,6,20,100,103,3,220,220,190,100,1,2,0,60,40,26.01,135.19,101.8,-33.389999,.75,low,0,0,,,,,
50,2,111021_1315,79.739998,10,Principal,6,85,51,45,2,1,1,11,150,150,0,280,280,235,100,1,2,0,90,60,26.01,165.78999,160.75,-5.0399933,.75,low,0,0,,,,,
50,3,111021_1315,79.739998,10,Principal,3,85,1,2,2,1,5,15,100,102,2,180,180,140,100,1,2,0,40,40,.0099999998,100.79,100.8,.010002136,.5,low,0,0,,,,,
50,4,111021_1315,79.739998,10,Principal,9,45,51,40,2,1,12,18,130,120,-10,220,220,160,100,1,2,0,60,60,26.01,135.19,124,-11.190002,.5,low,0,0,,,,,
50,5,111021_1315,79.739998,10,Principal,4,0,75,65,2,1,19,10,120,200,80,260,260,260,100,1,2,0,80,40,56.25,163.75,204,40.25,1,low,0,0,,,,,
50,6,111021_1315,79.739998,10,Principal,1,55,51,72,2,1,13,7,200,300,100,440,440,380,200,1,2,0,60,40,52.02,270.38,329.60001,59.220001,.75,high,0,0,,,,,
50,7,111021_1315,79.739998,10,Principal,7,90,71,70,2,1,8,9,350,330,-20,560,560,470,200,1,2,0,90,60,100.82,354.78,389,34.220001,.75,high,0,0,,,,,
50,8,111021_1315,79.739998,10,Principal,5,100,50,50,2,1,16,4,225,240,15,360,360,280,200,1,2,0,40,40,50,230,240,10,.5,high,0,0,,,,,
50,9,111021_1315,79.739998,10,Principal,8,57,51,40,2,1,3,14,250,240,-10,440,440,320,200,1,2,0,60,60,52.02,270.38,248,-22.380005,.5,high,0,0,,,,,
50,10,111021_1315,79.739998,10,Principal,10,0,80,65,1,1,2,17,250,400,150,520,520,520,200,1,2,0,80,40,128,328,408,80,1,high,0,0,,,,,
51,1,111021_1315,53.1096,10,Principal,2,30,70,31,2,1,8,4,100,130,30,220,220,190,100,1,2,0,60,40,49,135,127.9,-7.0999985,.75,low,0,0,,,,,
51,2,111021_1315,53.1096,10,Principal,6,55,95,75,1,1,20,7,150,190,40,280,280,235,100,1,2,0,90,60,90.25,180.75,201.25,20.5,.75,low,0,0,,,,,
51,3,111021_1315,53.1096,10,Principal,3,72,70,60,2,1,11,2,100,121,21,180,180,140,100,1,2,0,40,40,49,107,124,17,.5,low,0,0,,,,,
51,4,111021_1315,53.1096,10,Principal,9,71,50,1,2,1,5,3,120,120,0,220,220,160,100,1,2,0,60,60,25,135,100.6,-34.400002,.5,low,0,0,,,,,
51,5,111021_1315,53.1096,10,Principal,4,78,78,25,2,1,6,18,130,145,15,260,260,260,100,1,2,0,80,40,60.84,163.96001,140,-23.960007,1,low,0,0,,,,,
51,6,111021_1315,53.1096,10,Principal,1,71,65,65,2,1,17,9,250,300,50,440,440,380,200,1,2,0,60,40,84.5,271.5,317,45.5,.75,high,0,0,,,,,
51,7,111021_1315,53.1096,10,Principal,7,65,95,90,2,1,10,14,350,410,60,560,560,470,200,1,2,0,90,60,180.5,361.5,443,81.5,.75,high,0,0,,,,,
51,8,111021_1315,53.1096,10,Principal,5,0,70,70,2,1,19,13,160,270,110,360,360,280,200,1,2,0,40,40,98,214,256,42,.5,high,0,0,,,,,
51,9,111021_1315,53.1096,10,Principal,8,93,50,45,2,1,15,1,260,240,-20,440,440,320,200,1,2,0,60,60,50,270,254,-16,.5,high,0,0,,,,,
51,10,111021_1315,53.1096,10,Principal,10,100,98,70,2,2,12,16,320,300,-20,520,520,520,200,1,2,0,80,40,192.08,321.51999,424,102.48001,1,high,0,0,,,,,
52,1,111021_1315,43.380001,10,Agent,2,50,55,56,2,1,8,9,120,125,5,220,220,190,100,1,3,0,60,40,30.25,,,,.75,low,0,0,,,,,
52,2,111021_1315,43.380001,10,Agent,6,60,70,55,2,1,1,5,150,180,30,280,280,235,100,1,3,0,90,60,49,,,,.75,low,0,0,,,,,
52,3,111021_1315,43.380001,10,Agent,3,60,55,60,2,1,10,13,105,115,10,180,180,140,100,1,3,0,40,40,30.25,,,,.5,low,0,0,,,,,
52,4,111021_1315,43.380001,10,Agent,9,64,70,60,2,1,18,6,115,110,-5,220,220,160,100,1,3,0,60,60,49,,,,.5,low,0,0,,,,,
52,5,111021_1315,43.380001,10,Agent,4,80,23,1,2,1,12,20,120,101,-19,260,260,260,100,1,3,0,80,40,5.29,,,,1,low,0,0,,,,,
52,6,111021_1315,43.380001,10,Agent,1,70,80,60,2,1,16,14,270,300,30,440,440,380,200,1,3,0,60,40,128,,,,.75,high,0,0,,,,,
52,7,111021_1315,43.380001,10,Agent,7,70,70,76,2,1,11,17,350,370,20,560,560,470,200,1,3,0,90,60,98,,,,.75,high,0,0,,,,,
52,8,111021_1315,43.380001,10,Agent,5,64,70,40,2,1,7,3,210,220,10,360,360,280,200,1,3,0,40,40,98,,,,.5,high,0,0,,,,,
52,9,111021_1315,43.380001,10,Agent,8,70,80,99,2,1,2,15,280,319,39,440,440,320,200,1,3,0,60,60,128,,,,.5,high,0,0,,,,,
52,10,111021_1315,43.380001,10,Agent,10,70,70,1,2,1,4,19,340,210,-130,520,520,520,200,1,3,0,80,40,98,,,,1,high,0,0,,,,,
53,1,111021_1315,72.822601,10,Agent,2,0,33,20,2,1,1,8,120,120,0,220,220,190,100,1,2,0,60,40,10.89,,,,.75,low,0,0,,,,,
53,2,111021_1315,72.822601,10,Agent,6,0,80,75,2,1,19,2,100,200,100,280,280,235,100,1,2,0,90,60,64,,,,.75,low,0,0,,,,,
53,3,111021_1315,72.822601,10,Agent,3,0,88,80,2,1,13,11,80,132,52,180,180,140,100,1,2,0,40,40,77.440002,,,,.5,low,0,0,,,,,
53,4,111021_1315,72.822601,10,Agent,9,50,77,78,2,1,4,6,80,150,70,220,220,160,100,1,2,0,60,60,59.290001,,,,.5,low,0,0,,,,,
53,5,111021_1315,72.822601,10,Agent,4,0,75,1,2,2,3,14,90,100,10,260,260,260,100,1,2,0,80,40,56.25,,,,1,low,0,0,,,,,
53,6,111021_1315,72.822601,10,Agent,1,0,48,1,2,1,10,20,200,300,100,440,440,380,200,1,2,0,60,40,46.080002,,,,.75,high,0,0,,,,,
53,7,111021_1315,72.822601,10,Agent,7,100,65,69,2,1,5,9,200,396,196,560,560,470,200,1,2,0,90,60,84.5,,,,.75,high,0,0,,,,,
53,8,111021_1315,72.822601,10,Agent,5,0,60,85,2,1,15,17,200,260,60,360,360,280,200,1,2,0,40,40,72,,,,.5,high,0,0,,,,,
53,9,111021_1315,72.822601,10,Agent,8,50,70,35,2,1,18,16,150,242,92,440,440,320,200,1,2,0,60,60,98,,,,.5,high,0,0,,,,,
53,10,111021_1315,72.822601,10,Agent,10,0,32,1,2,1,12,7,276,200,-76,520,520,520,200,1,2,0,80,40,20.48,,,,1,high,0,0,,,,,
54,1,111021_1315,76.618797,10,Agent,2,100,53,58,2,1,14,15,100,140,40,220,220,190,100,1,3,0,60,40,28.09,,,,.75,low,0,0,,,,,
54,2,111021_1315,76.618797,10,Agent,6,100,49,50,2,1,7,13,140,160,20,280,280,235,100,1,3,0,90,60,24.01,,,,.75,low,0,0,,,,,
54,3,111021_1315,76.618797,10,Agent,3,0,64,50,2,1,3,17,90,130,40,180,180,140,100,1,3,0,40,40,40.959999,,,,.5,low,0,0,,,,,
54,4,111021_1315,76.618797,10,Agent,9,100,69,70,2,1,20,16,100,130,30,220,220,160,100,1,3,0,60,60,47.610001,,,,.5,low,0,0,,,,,
54,5,111021_1315,76.618797,10,Agent,4,100,60,1,2,1,11,5,100,260,160,260,260,260,100,1,3,0,80,40,36,,,,1,low,0,0,,,,,
54,6,111021_1315,76.618797,10,Agent,1,100,57,55,2,1,1,10,180,290,110,440,440,380,200,1,3,0,60,40,64.980003,,,,.75,high,0,0,,,,,
54,7,111021_1315,76.618797,10,Agent,7,100,70,85,2,1,8,18,250,400,150,560,560,470,200,1,3,0,90,60,98,,,,.75,high,0,0,,,,,
54,8,111021_1315,76.618797,10,Agent,5,0,55,65,2,1,9,2,200,270,70,360,360,280,200,1,3,0,40,40,60.5,,,,.5,high,0,0,,,,,
54,9,111021_1315,76.618797,10,Agent,8,100,75,76,2,1,19,6,200,300,100,440,440,320,200,1,3,0,60,60,112.5,,,,.5,high,0,0,,,,,
54,10,111021_1315,76.618797,10,Agent,10,99,90,85,2,1,12,4,200,500,300,520,520,520,200,1,3,0,80,40,162,,,,1,high,0,0,,,,,
55,1,111021_1315,63.650398,10,Agent,2,54,50,45,2,1,18,19,100,130,30,220,220,190,100,1,3,0,60,40,25,,,,.75,low,0,0,,,,,
55,2,111021_1315,63.650398,10,Agent,6,80,60,65,2,1,14,16,150,180,30,280,280,235,100,1,3,0,90,60,36,,,,.75,low,0,0,,,,,
55,3,111021_1315,63.650398,10,Agent,3,70,73,60,2,1,10,17,100,110,10,180,180,140,100,1,3,0,40,40,53.290001,,,,.5,low,0,0,,,,,
55,4,111021_1315,63.650398,10,Agent,9,90,71,79,2,1,7,3,169,120,-49,220,220,160,100,1,3,0,60,60,50.41,,,,.5,low,0,0,,,,,
55,5,111021_1315,63.650398,10,Agent,4,78,0,1,2,1,5,15,100,160,60,260,260,260,100,1,3,0,80,40,0,,,,1,low,0,0,,,,,
55,6,111021_1315,63.650398,10,Agent,1,100,40,70,2,1,9,1,200,280,80,440,440,380,200,1,3,0,60,40,32,,,,.75,high,0,0,,,,,
55,7,111021_1315,63.650398,10,Agent,7,90,70,100,2,1,4,20,250,470,220,560,560,470,200,1,3,0,90,60,98,,,,.75,high,0,0,,,,,
55,8,111021_1315,63.650398,10,Agent,5,60,1,1,2,1,6,12,200,240,40,360,360,280,200,1,3,0,40,40,.02,,,,.5,high,0,0,,,,,
55,9,111021_1315,63.650398,10,Agent,8,84,20,26,2,1,8,13,250,270,20,440,440,320,200,1,3,0,60,60,8,,,,.5,high,0,0,,,,,
55,10,111021_1315,63.650398,10,Agent,10,90,100,90,2,1,2,11,320,520,200,520,520,520,200,1,3,0,80,40,200,,,,1,high,0,0,,,,,
56,1,111021_1315,87.098396,10,Agent,2,44,60,1,2,1,8,9,120,110,-10,220,220,190,100,1,2,0,60,40,36,,,,.75,low,0,0,,,,,
56,2,111021_1315,87.098396,10,Agent,6,54,90,80,2,1,13,6,150,180,30,280,280,235,100,1,2,0,90,60,81,,,,.75,low,0,0,,,,,
56,3,111021_1315,87.098396,10,Agent,3,54,30,30,2,1,4,18,110,115,5,180,180,140,100,1,2,0,40,40,9,,,,.5,low,0,0,,,,,
56,4,111021_1315,87.098396,10,Agent,9,59,80,80,2,1,1,20,120,140,20,220,220,160,100,1,2,0,60,60,64,,,,.5,low,0,0,,,,,
56,5,111021_1315,87.098396,10,Agent,4,54,90,80,1,1,5,14,120,180,60,260,260,260,100,1,2,0,80,40,81,,,,1,low,0,0,,,,,
56,6,111021_1315,87.098396,10,Agent,1,67,50,35,2,1,15,17,270,240,-30,440,440,380,200,1,2,0,60,40,50,,,,.75,high,0,0,,,,,
56,7,111021_1315,87.098396,10,Agent,7,54,55,68,2,1,3,7,300,320,20,560,560,470,200,1,2,0,90,60,60.5,,,,.75,high,0,0,,,,,
56,8,111021_1315,87.098396,10,Agent,5,54,25,1,2,1,16,12,250,230,-20,360,360,280,200,1,2,0,40,40,12.5,,,,.5,high,0,0,,,,,
56,9,111021_1315,87.098396,10,Agent,8,67,75,80,2,1,2,19,200,275,75,440,440,320,200,1,2,0,60,60,112.5,,,,.5,high,0,0,,,,,
56,10,111021_1315,87.098396,10,Agent,10,59,45,75,1,1,11,10,275,400,125,520,520,520,200,1,2,0,80,40,40.5,,,,1,high,0,0,,,,,
57,1,111021_1315,62.549999,10,Agent,2,0,51,55,2,1,3,11,74,100,26,220,220,190,100,1,4,0,60,40,26.01,,,,.75,low,0,0,,,,,
57,2,111021_1315,62.549999,10,Agent,6,89,75,78,2,1,9,12,222,235,13,280,280,235,100,1,4,0,90,60,56.25,,,,.75,low,0,0,,,,,
57,3,111021_1315,62.549999,10,Agent,3,0,59,70,2,1,17,20,145,100,-45,180,180,140,100,1,4,0,40,40,34.810001,,,,.5,low,0,0,,,,,
57,4,111021_1315,62.549999,10,Agent,9,77,77,60,2,1,10,1,150,100,-50,220,220,160,100,1,4,0,60,60,59.290001,,,,.5,low,0,0,,,,,
57,5,111021_1315,62.549999,10,Agent,4,77,100,50,2,1,4,15,160,100,-60,260,260,260,100,1,4,0,80,40,100,,,,1,low,0,0,,,,,
57,6,111021_1315,62.549999,10,Agent,1,0,48,45,2,1,19,16,154,200,46,440,440,380,200,1,4,0,60,40,46.080002,,,,.75,high,0,0,,,,,
57,7,111021_1315,62.549999,10,Agent,7,0,90,80,2,1,7,6,398,470,72,560,560,470,200,1,4,0,90,60,162,,,,.75,high,0,0,,,,,
57,8,111021_1315,62.549999,10,Agent,5,0,30,89,2,1,14,18,182,280,98,360,360,280,200,1,4,0,40,40,18,,,,.5,high,0,0,,,,,
57,9,111021_1315,62.549999,10,Agent,8,70,45,20,2,1,13,8,160,200,40,440,440,320,200,1,4,0,60,60,40.5,,,,.5,high,0,0,,,,,
57,10,111021_1315,62.549999,10,Agent,10,70,70,75,2,1,5,2,102,520,418,520,520,520,200,1,4,0,80,40,98,,,,1,high,0,0,,,,,
58,1,111021_1315,73.3992,10,Agent,2,0,90,60,2,1,8,3,119,140,21,220,220,190,100,1,3,0,60,40,81,,,,.75,low,0,0,,,,,
58,2,111021_1315,73.3992,10,Agent,6,0,70,80,2,1,2,20,120,190,70,280,280,235,100,1,3,0,90,60,49,,,,.75,low,0,0,,,,,
58,3,111021_1315,73.3992,10,Agent,3,0,80,80,2,1,13,9,100,130,30,180,180,140,100,1,3,0,40,40,64,,,,.5,low,0,0,,,,,
58,4,111021_1315,73.3992,10,Agent,9,0,70,78,2,1,15,17,120,140,20,220,220,160,100,1,3,0,60,60,49,,,,.5,low,0,0,,,,,
58,5,111021_1315,73.3992,10,Agent,4,0,45,97,1,1,14,7,140,250,110,260,260,260,100,1,3,0,80,40,20.25,,,,1,low,0,0,,,,,
58,6,111021_1315,73.3992,10,Agent,1,0,53,51,2,1,10,1,260,300,40,440,440,380,200,1,3,0,60,40,56.18,,,,.75,high,0,0,,,,,
58,7,111021_1315,73.3992,10,Agent,7,0,100,93,2,1,4,12,360,430,70,560,560,470,200,1,3,0,90,60,200,,,,.75,high,0,0,,,,,
58,8,111021_1315,73.3992,10,Agent,5,0,31,1,2,1,5,11,240,230,-10,360,360,280,200,1,3,0,40,40,19.219999,,,,.5,high,0,0,,,,,
58,9,111021_1315,73.3992,10,Agent,8,0,81,80,2,1,16,18,200,280,80,440,440,320,200,1,3,0,60,60,131.22,,,,.5,high,0,0,,,,,
58,10,111021_1315,73.3992,10,Agent,10,0,80,65,1,1,6,19,320,370,50,520,520,520,200,1,3,0,80,40,128,,,,1,high,0,0,,,,,
59,1,111021_1315,37.860001,10,Agent,2,50,100,90,2,1,8,2,120,150,30,220,220,190,100,1,5,0,60,40,100,,,,.75,low,0,0,,,,,
59,2,111021_1315,37.860001,10,Agent,6,50,68,68,2,1,10,19,150,150,0,280,280,235,100,1,5,0,90,60,46.240002,,,,.75,low,0,0,,,,,
59,3,111021_1315,37.860001,10,Agent,3,50,80,63,2,1,18,20,70,100,30,180,180,140,100,1,5,0,40,40,64,,,,.5,low,0,0,,,,,
59,4,111021_1315,37.860001,10,Agent,9,50,90,65,2,1,4,14,120,120,0,220,220,160,100,1,5,0,60,60,81,,,,.5,low,0,0,,,,,
59,5,111021_1315,37.860001,10,Agent,4,100,20,3,2,1,12,1,100,100,0,260,260,260,100,1,5,0,80,40,4,,,,1,low,0,0,,,,,
59,6,111021_1315,37.860001,10,Agent,1,50,80,90,2,1,15,6,250,300,50,440,440,380,200,1,5,0,60,40,128,,,,.75,high,0,0,,,,,
59,7,111021_1315,37.860001,10,Agent,7,100,25,85,2,1,3,5,200,450,250,560,560,470,200,1,5,0,90,60,12.5,,,,.75,high,0,0,,,,,
59,8,111021_1315,37.860001,10,Agent,5,100,50,50,2,1,13,7,250,240,-10,360,360,280,200,1,5,0,40,40,50,,,,.5,high,0,0,,,,,
59,9,111021_1315,37.860001,10,Agent,8,70,32,78,2,1,16,17,200,250,50,440,440,320,200,1,5,0,60,60,20.48,,,,.5,high,0,0,,,,,
59,10,111021_1315,37.860001,10,Agent,10,100,98,70,2,2,11,9,300,400,100,520,520,520,200,1,5,0,80,40,192.08,,,,1,high,0,0,,,,,
60,1,111021_1315,73.199997,10,Agent,2,0,45,99,2,1,14,7,135,190,55,220,220,190,100,1,3,0,60,40,20.25,,,,.75,low,0,0,,,,,
60,2,111021_1315,73.199997,10,Agent,6,90,80,80,2,1,8,18,170,205,35,280,280,235,100,1,3,0,90,60,64,,,,.75,low,0,0,,,,,
60,3,111021_1315,73.199997,10,Agent,3,0,55,64,2,1,16,1,115,130,15,180,180,140,100,1,3,0,40,40,30.25,,,,.5,low,0,0,,,,,
60,4,111021_1315,73.199997,10,Agent,9,100,100,60,2,1,4,9,120,130,10,220,220,160,100,1,3,0,60,60,100,,,,.5,low,0,0,,,,,
60,5,111021_1315,73.199997,10,Agent,4,0,75,65,2,1,15,19,150,185,35,260,260,260,100,1,3,0,80,40,56.25,,,,1,low,0,0,,,,,
60,6,111021_1315,73.199997,10,Agent,1,94,54,55,2,1,20,17,260,280,20,440,440,380,200,1,3,0,60,40,58.32,,,,.75,high,0,0,,,,,
60,7,111021_1315,73.199997,10,Agent,7,100,91,90,2,1,13,6,380,435,55,560,560,470,200,1,3,0,90,60,165.62,,,,.75,high,0,0,,,,,
60,8,111021_1315,73.199997,10,Agent,5,0,70,70,2,1,10,12,200,260,60,360,360,280,200,1,3,0,40,40,98,,,,.5,high,0,0,,,,,
60,9,111021_1315,73.199997,10,Agent,8,95,90,80,2,1,2,11,247,299,52,440,440,320,200,1,3,0,60,60,162,,,,.5,high,0,0,,,,,
60,10,111021_1315,73.199997,10,Agent,10,100,40,30,2,1,5,3,290,299,9,520,520,520,200,1,3,0,80,40,32,,,,1,high,0,0,,,,,
61,1,111021_1315,74.279999,10,Agent,2,70,65,40,2,1,3,12,120,120,0,220,220,190,100,1,2,0,60,40,42.25,,,,.75,low,0,0,,,,,
61,2,111021_1315,74.279999,10,Agent,6,78,67,67,2,1,15,10,200,200,0,280,280,235,100,1,2,0,90,60,44.889999,,,,.75,low,0,0,,,,,
61,3,111021_1315,74.279999,10,Agent,3,78,20,20,2,1,19,6,140,120,-20,180,180,140,100,1,2,0,40,40,4,,,,.5,low,0,0,,,,,
61,4,111021_1315,74.279999,10,Agent,9,78,45,98,2,1,8,20,130,140,10,220,220,160,100,1,2,0,60,60,20.25,,,,.5,low,0,0,,,,,
61,5,111021_1315,74.279999,10,Agent,4,78,78,25,2,1,13,17,160,140,-20,260,260,260,100,1,2,0,80,40,60.84,,,,1,low,0,0,,,,,
61,6,111021_1315,74.279999,10,Agent,1,78,50,54,2,1,14,9,200,240,40,440,440,380,200,1,2,0,60,40,50,,,,.75,high,0,0,,,,,
61,7,111021_1315,74.279999,10,Agent,7,90,71,70,2,1,7,18,300,370,70,560,560,470,200,1,2,0,90,60,100.82,,,,.75,high,0,0,,,,,
61,8,111021_1315,74.279999,10,Agent,5,75,50,45,2,1,5,2,200,200,0,360,360,280,200,1,2,0,40,40,50,,,,.5,high,0,0,,,,,
61,9,111021_1315,74.279999,10,Agent,8,70,100,40,1,1,11,4,240,280,40,440,440,320,200,1,2,0,60,60,200,,,,.5,high,0,0,,,,,
61,10,111021_1315,74.279999,10,Agent,10,85,95,50,2,2,16,1,320,300,-20,520,520,520,200,1,2,0,80,40,180.5,,,,1,high,0,0,,,,,
62,1,111021_1315,71.489998,10,Agent,2,50,51,2,1,1,1,15,188,120,-68,220,220,190,100,1,1,0,60,40,26.01,,,,.75,low,0,0,,,,,
62,2,111021_1315,71.489998,10,Agent,6,65,50,67,2,1,17,8,150,199,49,280,280,235,100,1,1,0,90,60,25,,,,.75,low,0,0,,,,,
62,3,111021_1315,71.489998,10,Agent,3,60,50,1,2,1,10,12,110,110,0,180,180,140,100,1,1,0,40,40,25,,,,.5,low,0,0,,,,,
62,4,111021_1315,71.489998,10,Agent,9,65,85,70,2,1,3,13,140,140,0,220,220,160,100,1,1,0,60,60,72.25,,,,.5,low,0,0,,,,,
62,5,111021_1315,71.489998,10,Agent,4,51,60,50,1,1,4,19,180,160,-20,260,260,260,100,1,1,0,80,40,36,,,,1,low,0,0,,,,,
62,6,111021_1315,71.489998,10,Agent,1,51,95,70,2,1,5,18,250,300,50,440,440,380,200,1,1,0,60,40,180.5,,,,.75,high,0,0,,,,,
62,7,111021_1315,71.489998,10,Agent,7,65,95,90,2,1,9,11,360,400,40,560,560,470,200,1,1,0,90,60,180.5,,,,.75,high,0,0,,,,,
62,8,111021_1315,71.489998,10,Agent,5,58,60,40,2,1,2,16,200,230,30,360,360,280,200,1,1,0,40,40,72,,,,.5,high,0,0,,,,,
62,9,111021_1315,71.489998,10,Agent,8,30,35,95,1,1,14,6,220,300,80,440,440,320,200,1,1,0,60,60,24.5,,,,.5,high,0,0,,,,,
62,10,111021_1315,71.489998,10,Agent,10,65,50,1,1,1,7,20,380,250,-130,520,520,520,200,1,1,0,80,40,50,,,,1,high,0,0,,,,,
63,1,111021_1315,80.398804,10,Agent,2,30,70,31,2,1,4,7,140,135,-5,220,220,190,100,1,2,0,60,40,49,,,,.75,low,0,0,,,,,
63,2,111021_1315,80.398804,10,Agent,6,50,90,80,2,1,11,8,190,200,10,280,280,235,100,1,2,0,90,60,81,,,,.75,low,0,0,,,,,
63,3,111021_1315,80.398804,10,Agent,3,22,40,96,1,1,6,10,105,135,30,180,180,140,100,1,2,0,40,40,16,,,,.5,low,0,0,,,,,
63,4,111021_1315,80.398804,10,Agent,9,45,51,40,2,1,3,5,130,130,0,220,220,160,100,1,2,0,60,60,26.01,,,,.5,low,0,0,,,,,
63,5,111021_1315,80.398804,10,Agent,4,65,80,30,1,1,17,12,140,180,40,260,260,260,100,1,2,0,80,40,64,,,,1,low,0,0,,,,,
63,6,111021_1315,80.398804,10,Agent,1,59,100,50,2,1,20,1,240,290,50,440,440,380,200,1,2,0,60,40,200,,,,.75,high,0,0,,,,,
63,7,111021_1315,80.398804,10,Agent,7,65,75,65,2,1,2,19,400,400,0,560,560,470,200,1,2,0,90,60,112.5,,,,.75,high,0,0,,,,,
63,8,111021_1315,80.398804,10,Agent,5,55,44,60,2,1,18,16,230,260,30,360,360,280,200,1,2,0,40,40,38.720001,,,,.5,high,0,0,,,,,
63,9,111021_1315,80.398804,10,Agent,8,61,45,60,2,1,9,13,280,280,0,440,440,320,200,1,2,0,60,60,40.5,,,,.5,high,0,0,,,,,
63,10,111021_1315,80.398804,10,Agent,10,60,77,44,2,2,15,14,350,420,70,520,520,520,200,1,2,0,80,40,118.58,,,,1,high,0,0,,,,,
64,1,111021_1315,68.879997,10,Agent,2,24,50,40,2,1,11,15,135,136,1,220,220,190,100,1,2,0,60,40,25,,,,.75,low,0,0,,,,,
64,2,111021_1315,68.879997,10,Agent,6,68,100,50,2,1,9,4,180,170,-10,280,280,235,100,1,2,0,90,60,100,,,,.75,low,0,0,,,,,
64,3,111021_1315,68.879997,10,Agent,3,58,50,1,2,1,5,14,115,101,-14,180,180,140,100,1,2,0,40,40,25,,,,.5,low,0,0,,,,,
64,4,111021_1315,68.879997,10,Agent,9,71,50,1,2,1,7,3,135,101,-34,220,220,160,100,1,2,0,60,60,25,,,,.5,low,0,0,,,,,
64,5,111021_1315,68.879997,10,Agent,4,0,47,1,2,2,8,1,160,101,-59,260,260,260,100,1,2,0,80,40,22.09,,,,1,low,0,0,,,,,
64,6,111021_1315,68.879997,10,Agent,1,50,33,90,2,1,10,2,300,370,70,440,440,380,200,1,2,0,60,40,21.780001,,,,.75,high,0,0,,,,,
64,7,111021_1315,68.879997,10,Agent,7,55,60,50,2,1,20,19,352,335,-17,560,560,470,200,1,2,0,90,60,72,,,,.75,high,0,0,,,,,
64,8,111021_1315,68.879997,10,Agent,5,50,76,100,2,1,16,12,210,280,70,360,360,280,200,1,2,0,40,40,115.52,,,,.5,high,0,0,,,,,
64,9,111021_1315,68.879997,10,Agent,8,57,51,40,2,1,13,17,275,248,-27,440,440,320,200,1,2,0,60,60,52.02,,,,.5,high,0,0,,,,,
64,10,111021_1315,68.879997,10,Agent,10,0,80,50,2,1,6,18,326,360,34,520,520,520,200,1,2,0,80,40,128,,,,1,high,0,0,,,,,
65,1,111021_1315,73.449997,10,Agent,2,80,70,50,2,1,7,6,125,160,35,220,220,190,100,1,4,5,60,40,49,,,,.75,low,0,0,,,,,
65,2,111021_1315,73.449997,10,Agent,6,51,50,93,1,1,16,19,199,190,-9,280,280,235,100,1,4,5,90,60,25,,,,.75,low,0,0,,,,,
65,3,111021_1315,73.449997,10,Agent,3,85,1,2,2,1,18,11,100,120,20,180,180,140,100,1,4,5,40,40,.0099999998,,,,.5,low,0,0,,,,,
65,4,111021_1315,73.449997,10,Agent,9,90,50,60,1,1,9,2,120,130,10,220,220,160,100,1,4,5,60,60,25,,,,.5,low,0,0,,,,,
65,5,111021_1315,73.449997,10,Agent,4,95,80,100,1,2,8,17,36,259,223,260,260,260,100,1,4,5,80,40,64,,,,1,low,0,0,,,,,
65,6,111021_1315,73.449997,10,Agent,1,70,25,10,2,1,13,10,250,300,50,440,440,380,200,1,4,5,60,40,12.5,,,,.75,high,0,0,,,,,
65,7,111021_1315,73.449997,10,Agent,7,90,50,66,2,1,5,14,400,400,0,560,560,470,200,1,4,5,90,60,50,,,,.75,high,0,0,,,,,
65,8,111021_1315,73.449997,10,Agent,5,75,50,10,2,1,20,1,240,230,-10,360,360,280,200,1,4,5,40,40,50,,,,.5,high,0,0,,,,,
65,9,111021_1315,73.449997,10,Agent,8,93,50,45,2,1,12,3,350,240,-110,440,440,320,200,1,4,5,60,60,50,,,,.5,high,0,0,,,,,
65,10,111021_1315,73.449997,10,Agent,10,77,83,90,2,2,4,15,65,480,415,520,520,520,200,1,4,5,80,40,137.78,,,,1,high,0,0,,,,,
66,1,111021_1315,72.419998,10,Agent,2,40,47,54,2,1,12,3,140,150,10,220,220,190,100,1,3,0,60,40,22.09,,,,.75,low,0,0,,,,,
66,2,111021_1315,72.419998,10,Agent,6,64,40,55,2,1,13,15,150,175,25,280,280,235,100,1,3,0,90,60,16,,,,.75,low,0,0,,,,,
66,3,111021_1315,72.419998,10,Agent,3,72,70,60,2,1,4,11,105,120,15,180,180,140,100,1,3,0,40,40,49,,,,.5,low,0,0,,,,,
66,4,111021_1315,72.419998,10,Agent,9,100,80,60,2,1,10,1,135,120,-15,220,220,160,100,1,3,0,60,60,64,,,,.5,low,0,0,,,,,
66,5,111021_1315,72.419998,10,Agent,4,78,75,60,2,1,9,16,150,200,50,260,260,260,100,1,3,0,80,40,56.25,,,,1,low,0,0,,,,,
66,6,111021_1315,72.419998,10,Agent,1,55,51,72,2,1,8,7,225,330,105,440,440,380,200,1,3,0,60,40,52.02,,,,.75,high,0,0,,,,,
66,7,111021_1315,72.419998,10,Agent,7,100,78,100,2,1,19,14,350,470,120,560,560,470,200,1,3,0,90,60,121.68,,,,.75,high,0,0,,,,,
66,8,111021_1315,72.419998,10,Agent,5,55,63,64,2,1,17,20,210,240,30,360,360,280,200,1,3,0,40,40,79.379997,,,,.5,high,0,0,,,,,
66,9,111021_1315,72.419998,10,Agent,8,75,35,60,2,1,18,5,270,275,5,440,440,320,200,1,3,0,60,60,24.5,,,,.5,high,0,0,,,,,
66,10,111021_1315,72.419998,10,Agent,10,50,80,1,2,1,6,2,300,350,50,520,520,520,200,1,3,0,80,40,128,,,,1,high,0,0,,,,,
67,1,111021_1315,57.84,10,Agent,2,60,55,100,2,1,2,6,100,190,90,220,220,190,100,1,3,0,60,40,30.25,,,,.75,low,0,0,,,,,
67,2,111021_1315,57.84,10,Agent,6,85,51,45,2,1,7,9,170,170,0,280,280,235,100,1,3,0,90,60,26.01,,,,.75,low,0,0,,,,,
67,3,111021_1315,57.84,10,Agent,3,83,35,50,2,1,13,11,100,115,15,180,180,140,100,1,3,0,40,40,12.25,,,,.5,low,0,0,,,,,
67,4,111021_1315,57.84,10,Agent,9,75,60,77,2,1,16,20,90,129,39,220,220,160,100,1,3,0,60,60,36,,,,.5,low,0,0,,,,,
67,5,111021_1315,57.84,10,Agent,4,71,70,10,1,2,14,10,100,180,80,260,260,260,100,1,3,0,80,40,49,,,,1,low,0,0,,,,,
67,6,111021_1315,57.84,10,Agent,1,71,65,65,2,1,17,1,300,300,0,440,440,380,200,1,3,0,60,40,84.5,,,,.75,high,0,0,,,,,
67,7,111021_1315,57.84,10,Agent,7,89,80,60,2,1,18,15,400,300,-100,560,560,470,200,1,3,0,90,60,128,,,,.75,high,0,0,,,,,
67,8,111021_1315,57.84,10,Agent,5,64,60,40,2,1,5,19,200,240,40,360,360,280,200,1,3,0,40,40,72,,,,.5,high,0,0,,,,,
67,9,111021_1315,57.84,10,Agent,8,71,70,40,2,1,3,12,300,250,-50,440,440,320,200,1,3,0,60,60,98,,,,.5,high,0,0,,,,,
67,10,111021_1315,57.84,10,Agent,10,50,70,1,1,1,8,4,300,300,0,520,520,520,200,1,3,0,80,40,98,,,,1,high,0,0,,,,,
68,1,111021_1315,56.517601,10,Agent,2,52,60,50,2,1,14,7,115,160,45,220,220,190,100,1,1,0,60,40,36,,,,.75,low,0,0,,,,,
68,2,111021_1315,56.517601,10,Agent,6,55,95,75,1,1,1,6,179,190,11,280,280,235,100,1,1,0,90,60,90.25,,,,.75,low,0,0,,,,,
68,3,111021_1315,56.517601,10,Agent,3,59,25,50,2,1,2,18,120,120,0,180,180,140,100,1,1,0,40,40,6.25,,,,.5,low,0,0,,,,,
68,4,111021_1315,56.517601,10,Agent,9,69,77,99,2,1,5,11,135,155,20,220,220,160,100,1,1,0,60,60,59.290001,,,,.5,low,0,0,,,,,
68,5,111021_1315,56.517601,10,Agent,4,32,60,1,1,1,16,4,175,130,-45,260,260,260,100,1,1,0,80,40,36,,,,1,low,0,0,,,,,
68,6,111021_1315,56.517601,10,Agent,1,59,35,50,1,1,13,12,230,310,80,440,440,380,200,1,1,0,60,40,24.5,,,,.75,high,0,0,,,,,
68,7,111021_1315,56.517601,10,Agent,7,69,67,68,2,1,10,8,320,320,0,560,560,470,200,1,1,0,90,60,89.779999,,,,.75,high,0,0,,,,,
68,8,111021_1315,56.517601,10,Agent,5,69,63,66,2,1,3,9,225,255,30,360,360,280,200,1,1,0,40,40,79.379997,,,,.5,high,0,0,,,,,
68,9,111021_1315,56.517601,10,Agent,8,74,58,78,2,1,20,17,250,285,35,440,440,320,200,1,1,0,60,60,67.279999,,,,.5,high,0,0,,,,,
68,10,111021_1315,56.517601,10,Agent,10,75,100,20,1,2,15,19,320,350,30,520,520,520,200,1,1,0,80,40,200,,,,1,high,0,0,,,,,
69,1,111026_1315,62.805,10,Principal,8,77,75,1,2,1,16,3,100,120,20,220,220,190,100,1,4,0,60,40,56.25,133.75,100.9,-32.849998,.75,low,0,0,,,,,
69,2,111026_1315,62.805,10,Principal,7,2,75,75,2,1,12,19,100,200,100,280,280,235,100,1,4,0,90,60,56.25,178.75,201.25,22.5,.75,low,0,0,,,,,
69,3,111026_1315,62.805,10,Principal,3,20,63,75,2,1,2,10,100,130,30,180,180,140,100,1,4,0,40,40,39.689999,110.71,130,19.290001,.5,low,0,0,,,,,
69,4,111026_1315,62.805,10,Principal,6,71,75,75,2,1,13,7,100,140,40,220,220,160,100,1,4,0,60,60,56.25,133.75,145,11.25,.5,low,0,0,,,,,
69,5,111026_1315,62.805,10,Principal,5,60,75,1,1,1,6,14,120,160,40,260,260,260,100,1,4,0,80,40,56.25,163.75,101.6,-62.150002,1,low,0,0,,,,,
69,6,111026_1315,62.805,10,Principal,1,0,55,75,2,1,11,1,250,300,50,440,440,380,200,1,4,0,60,40,60.5,271.5,335,63.5,.75,high,0,0,,,,,
69,7,111026_1315,62.805,10,Principal,9,48,67,75,2,1,4,15,290,335,45,560,560,470,200,1,4,0,90,60,89.779999,351.42001,402.5,51.079987,.75,high,0,0,,,,,
69,8,111026_1315,62.805,10,Principal,10,50,75,75,2,1,17,18,160,240,80,360,360,280,200,1,4,0,40,40,112.5,207.5,260,52.5,.5,high,0,0,,,,,
69,9,111026_1315,62.805,10,Principal,2,100,75,100,2,1,9,5,200,320,120,440,440,320,200,1,4,0,60,60,112.5,267.5,320,52.5,.5,high,0,0,,,,,
69,10,111026_1315,62.805,10,Principal,4,70,90,1,1,1,8,20,350,320,-30,520,520,520,200,1,4,0,80,40,162,326,203.2,-122.8,1,high,0,0,,,,,
70,1,111026_1315,63.3162,10,Principal,8,15,55,40,2,1,4,18,160,160,0,220,220,190,100,1,4,0,60,40,30.25,135.75,136,.25,.75,low,0,0,,,,,
70,2,111026_1315,63.3162,10,Principal,7,70,60,32,2,1,15,5,195,185,-10,280,280,235,100,1,4,0,90,60,36,172,143.2,-28.800003,.75,low,0,0,,,,,
70,3,111026_1315,63.3162,10,Principal,3,63,51,50,2,1,11,2,115,120,5,180,180,140,100,1,4,0,40,40,26.01,114.79,120,5.2099991,.5,low,0,0,,,,,
70,4,111026_1315,63.3162,10,Principal,6,2,41,40,2,1,12,13,160,140,-20,220,220,160,100,1,4,0,60,60,16.809999,132.39,124,-8.3899994,.5,low,0,0,,,,,
70,5,111026_1315,63.3162,10,Principal,5,0,26,2,2,1,7,10,110,170,60,260,260,260,100,1,4,0,80,40,6.7600002,134.84,103.2,-31.639999,1,low,0,0,,,,,
70,6,111026_1315,63.3162,10,Principal,1,15,64,30,2,1,14,20,280,210,-70,440,440,380,200,1,4,0,60,40,81.919998,271.67999,254,-17.679993,.75,high,0,0,,,,,
70,7,111026_1315,63.3162,10,Principal,9,50,71,70,2,1,8,19,320,220,-100,560,560,470,200,1,4,0,90,60,100.82,354.78,389,34.220001,.75,high,0,0,,,,,
70,8,111026_1315,63.3162,10,Principal,10,29,56,55,2,1,1,17,230,245,15,360,360,280,200,1,4,0,40,40,62.720001,226.88,244,17.119995,.5,high,0,0,,,,,
70,9,111026_1315,63.3162,10,Principal,2,63,45,26,2,1,3,9,260,235,-25,440,440,320,200,1,4,0,60,60,40.5,267.5,231.2,-36.300003,.5,high,0,0,,,,,
70,10,111026_1315,63.3162,10,Principal,4,100,90,85,1,1,6,16,201,500,299,520,520,520,200,1,4,0,80,40,162,326,472,146,1,high,0,0,,,,,
71,1,111026_1315,41.939999,10,Principal,8,80,70,1,2,1,6,8,110,120,10,220,220,190,100,1,4,0,60,40,49,135,100.9,-34.099998,.75,low,0,0,,,,,
71,2,111026_1315,41.939999,10,Principal,7,70,90,1,2,1,4,13,150,110,-40,280,280,235,100,1,4,0,90,60,81,181,101.35,-79.650002,.75,low,0,0,,,,,
71,3,111026_1315,41.939999,10,Principal,3,50,60,1,2,1,19,1,100,120,20,180,180,140,100,1,4,0,40,40,36,112,100.4,-11.599998,.5,low,0,0,,,,,
71,4,111026_1315,41.939999,10,Principal,6,70,80,1,2,1,14,12,100,110,10,220,220,160,100,1,4,0,60,60,64,132,100.6,-31.400002,.5,low,0,0,,,,,
71,5,111026_1315,41.939999,10,Principal,5,10,80,1,1,1,5,9,130,120,-10,260,260,260,100,1,4,0,80,40,64,164,101.6,-62.400002,1,low,0,0,,,,,
71,6,111026_1315,41.939999,10,Principal,1,54,75,1,2,1,3,18,220,225,5,440,440,380,200,1,4,0,60,40,112.5,267.5,201.8,-65.699997,.75,high,0,0,,,,,
71,7,111026_1315,41.939999,10,Principal,9,64,80,1,2,1,20,2,300,220,-80,560,560,470,200,1,4,0,90,60,128,360,202.7,-157.3,.75,high,0,0,,,,,
71,8,111026_1315,41.939999,10,Principal,10,60,50,1,2,1,17,15,200,220,20,360,360,280,200,1,4,0,40,40,50,230,200.8,-29.199997,.5,high,0,0,,,,,
71,9,111026_1315,41.939999,10,Principal,2,39,80,1,2,1,11,7,200,240,40,440,440,320,200,1,4,0,60,60,128,264,201.2,-62.800003,.5,high,0,0,,,,,
71,10,111026_1315,41.939999,10,Principal,4,48,90,1,1,1,16,10,300,220,-80,520,520,520,200,1,4,0,80,40,162,326,203.2,-122.8,1,high,0,0,,,,,
72,1,111026_1315,52.890598,10,Principal,8,15,30,51,2,1,9,6,115,145,30,220,220,190,100,1,3,4,60,40,9,127,145.89999,18.899994,.75,low,0,0,,,,,
72,2,111026_1315,52.890598,10,Principal,7,42,43,60,1,1,20,5,170,160,-10,280,280,235,100,1,3,4,90,60,18.49,158.91,181,22.089996,.75,low,0,0,,,,,
72,3,111026_1315,52.890598,10,Principal,3,40,51,60,2,1,18,11,105,115,10,180,180,140,100,1,3,4,40,40,26.01,114.79,124,9.2099991,.5,low,0,0,,,,,
72,4,111026_1315,52.890598,10,Principal,6,78,55,56,2,1,10,4,130,105,-25,220,220,160,100,1,3,4,60,60,30.25,135.75,133.60001,-2.1499939,.5,low,0,0,,,,,
72,5,111026_1315,52.890598,10,Principal,5,0,10,11,2,1,19,12,145,105,-40,260,260,260,100,1,3,4,80,40,1,115,117.6,2.5999985,1,low,0,0,,,,,
72,6,111026_1315,52.890598,10,Principal,1,50,40,51,2,1,17,3,305,295,-10,440,440,380,200,1,3,4,60,40,32,264,291.79999,27.799988,.75,high,0,0,,,,,
72,7,111026_1315,52.890598,10,Principal,9,65,36,55,2,1,13,8,300,325,25,560,560,470,200,1,3,4,90,60,25.92,303.67999,348.5,44.820007,.75,high,0,0,,,,,
72,8,111026_1315,52.890598,10,Principal,10,70,5,54,2,1,15,16,205,244,39,360,360,280,200,1,3,4,40,40,.5,207.5,243.2,35.699997,.5,high,0,0,,,,,
72,9,111026_1315,52.890598,10,Principal,2,80,70,75,2,1,7,14,300,240,-60,440,440,320,200,1,3,4,60,60,98,270,290,20,.5,high,0,0,,,,,
72,10,111026_1315,52.890598,10,Principal,4,56,9,10,1,2,2,1,250,250,0,520,520,520,200,1,3,4,80,40,1.62,227.17999,232,4.8200073,1,high,0,0,,,,,
73,1,111026_1315,82.042603,10,Principal,8,74,77,70,2,1,4,5,120,145,25,220,220,190,100,1,3,0,60,40,59.290001,133.11,163,29.889999,.75,low,0,0,,,,,
73,2,111026_1315,82.042603,10,Principal,7,42,86,70,2,1,10,11,100,170,70,280,280,235,100,1,3,0,90,60,73.959999,180.84,194.5,13.660004,.75,low,0,0,,,,,
73,3,111026_1315,82.042603,10,Principal,3,40,63,64,2,1,1,20,100,120,20,180,180,140,100,1,3,0,40,40,39.689999,110.71,125.6,14.889999,.5,low,0,0,,,,,
73,4,111026_1315,82.042603,10,Principal,6,54,77,77,2,1,13,17,120,140,20,220,220,160,100,1,3,0,60,60,59.290001,133.11,146.2,13.089996,.5,low,0,0,,,,,
73,5,111026_1315,82.042603,10,Principal,5,50,75,70,2,1,2,16,120,180,60,260,260,260,100,1,3,0,80,40,56.25,163.75,212,48.25,1,low,0,0,,,,,
73,6,111026_1315,82.042603,10,Principal,1,43,75,80,2,1,9,14,200,310,110,440,440,380,200,1,3,0,60,40,112.5,267.5,344,76.5,.75,high,0,0,,,,,
73,7,111026_1315,82.042603,10,Principal,9,75,74,85,2,1,7,8,200,380,180,560,560,470,200,1,3,0,90,60,109.52,356.88,429.5,72.619995,.75,high,0,0,,,,,
73,8,111026_1315,82.042603,10,Principal,10,65,63,80,2,1,15,6,200,250,50,360,360,280,200,1,3,0,40,40,79.379997,221.42,264,42.580002,.5,high,0,0,,,,,
73,9,111026_1315,82.042603,10,Principal,2,30,77,77,2,1,12,3,150,280,130,440,440,320,200,1,3,0,60,60,118.58,266.22,292.39999,26.179993,.5,high,0,0,,,,,
73,10,111026_1315,82.042603,10,Principal,4,0,80,75,2,2,18,19,120,400,280,520,520,520,200,1,3,0,80,40,128,328,440,112,1,high,0,0,,,,,
74,1,111026_1315,65.160004,10,Principal,8,50,50,50,2,1,10,15,130,130,0,220,220,190,100,1,3,0,60,40,25,135,145,10,.75,low,0,0,,,,,
74,2,111026_1315,65.160004,10,Principal,7,90,60,68,2,1,14,13,150,150,0,280,280,235,100,1,3,0,90,60,36,172,191.8,19.800003,.75,low,0,0,,,,,
74,3,111026_1315,65.160004,10,Principal,3,0,51,71,2,1,12,19,100,130,30,180,180,140,100,1,3,0,40,40,26.01,114.79,128.39999,13.609993,.5,low,0,0,,,,,
74,4,111026_1315,65.160004,10,Principal,6,7,70,78,2,1,8,20,150,140,-10,220,220,160,100,1,3,0,60,60,49,135,146.8,11.800003,.5,low,0,0,,,,,
74,5,111026_1315,65.160004,10,Principal,5,80,51,1,1,1,6,17,150,101,-49,260,260,260,100,1,3,0,80,40,26.01,155.59,101.6,-53.989998,1,low,0,0,,,,,
74,6,111026_1315,65.160004,10,Principal,1,45,54,54,2,1,18,11,280,300,20,440,440,380,200,1,3,0,60,40,58.32,271.28,297.20001,25.920013,.75,high,0,0,,,,,
74,7,111026_1315,65.160004,10,Principal,9,80,60,100,2,1,7,5,300,470,170,560,560,470,200,1,3,0,90,60,72,344,470,126,.75,high,0,0,,,,,
74,8,111026_1315,65.160004,10,Principal,10,60,50,70,2,1,4,3,200,250,50,360,360,280,200,1,3,0,40,40,50,230,256,26,.5,high,0,0,,,,,
74,9,111026_1315,65.160004,10,Principal,2,65,70,89,2,1,16,9,280,280,0,440,440,320,200,1,3,0,60,60,98,270,306.79999,36.799988,.5,high,0,0,,,,,
74,10,111026_1315,65.160004,10,Principal,4,30,75,1,1,1,1,2,300,210,-90,520,520,520,200,1,3,0,80,40,112.5,327.5,203.2,-124.3,1,high,0,0,,,,,
75,1,111026_1315,83.491203,10,Principal,8,60,50,49,2,1,14,4,135,150,15,220,220,190,100,1,2,0,60,40,25,135,144.10001,9.1000061,.75,low,0,0,,,,,
75,2,111026_1315,83.491203,10,Principal,7,20,50,49,2,1,15,6,180,125,-55,280,280,235,100,1,2,0,90,60,25,165,166.14999,1.1499939,.75,low,0,0,,,,,
75,3,111026_1315,83.491203,10,Principal,3,10,50,49,2,1,7,3,125,125,0,180,180,140,100,1,2,0,40,40,25,115,119.6,4.5999985,.5,low,0,0,,,,,
75,4,111026_1315,83.491203,10,Principal,6,0,60,49,2,1,5,19,130,120,-10,220,220,160,100,1,2,0,60,60,36,136,129.39999,-6.6000061,.5,low,0,0,,,,,
75,5,111026_1315,83.491203,10,Principal,5,39,60,49,2,1,12,17,150,130,-20,260,260,260,100,1,2,0,80,40,36,160,178.39999,18.399994,1,low,0,0,,,,,
75,6,111026_1315,83.491203,10,Principal,1,70,70,49,2,1,8,1,240,285,45,440,440,380,200,1,2,0,60,40,98,270,288.20001,18.200012,.75,high,0,0,,,,,
75,7,111026_1315,83.491203,10,Principal,9,90,60,49,2,1,20,9,300,240,-60,560,560,470,200,1,2,0,90,60,72,344,332.29999,-11.700012,.75,high,0,0,,,,,
75,8,111026_1315,83.491203,10,Principal,10,63,60,50,2,1,13,18,170,250,80,360,360,280,200,1,2,0,40,40,72,224,240,16,.5,high,0,0,,,,,
75,9,111026_1315,83.491203,10,Principal,2,50,60,49,2,1,10,16,250,265,15,440,440,320,200,1,2,0,60,60,72,272,258.79999,-13.200012,.5,high,0,0,,,,,
75,10,111026_1315,83.491203,10,Principal,4,0,60,49,2,1,2,11,270,360,90,520,520,520,200,1,2,0,80,40,72,320,356.79999,36.799988,1,high,0,0,,,,,
76,1,111026_1315,66.705002,10,Principal,8,45,45,1,2,1,9,1,80,100,20,220,220,190,100,1,5,0,60,40,20.25,133.75,100.9,-32.849998,.75,low,0,0,,,,,
76,2,111026_1315,66.705002,10,Principal,7,67,45,45,2,1,7,5,80,100,20,280,280,235,100,1,5,0,90,60,20.25,160.75,160.75,0,.75,low,0,0,,,,,
76,3,111026_1315,66.705002,10,Principal,3,60,45,1,2,1,8,4,80,100,20,180,180,140,100,1,5,0,40,40,20.25,115.75,100.4,-15.349998,.5,low,0,0,,,,,
76,4,111026_1315,66.705002,10,Principal,6,20,45,45,2,1,10,13,80,100,20,220,220,160,100,1,5,0,60,60,20.25,133.75,127,-6.75,.5,low,0,0,,,,,
76,5,111026_1315,66.705002,10,Principal,5,80,55,1,1,2,15,17,70,100,30,260,260,260,100,1,5,0,80,40,30.25,157.75,101.6,-56.150002,1,low,0,0,,,,,
76,6,111026_1315,66.705002,10,Principal,1,40,45,75,2,1,12,14,160,200,40,440,440,380,200,1,5,0,60,40,40.5,267.5,335,67.5,.75,high,0,0,,,,,
76,7,111026_1315,66.705002,10,Principal,9,95,55,75,2,1,16,20,140,200,60,560,560,470,200,1,5,0,90,60,60.5,337.5,402.5,65,.75,high,0,0,,,,,
76,8,111026_1315,66.705002,10,Principal,10,40,32,50,2,1,19,3,180,200,20,360,360,280,200,1,5,0,40,40,20.48,230.72,240,9.2799988,.5,high,0,0,,,,,
76,9,111026_1315,66.705002,10,Principal,2,43,45,75,2,1,2,18,160,200,40,440,440,320,200,1,5,0,60,60,40.5,267.5,290,22.5,.5,high,0,0,,,,,
76,10,111026_1315,66.705002,10,Principal,4,50,10,1,2,2,6,11,200,200,0,520,520,520,200,1,5,0,80,40,2,230,203.2,-26.800003,1,high,0,0,,,,,
77,1,111026_1315,52.419998,10,Principal,8,80,83,70,2,1,20,12,100,130,30,220,220,190,100,1,3,0,60,40,68.889999,130.71001,163,32.289993,.75,low,0,0,,,,,
77,2,111026_1315,52.419998,10,Principal,7,50,80,67,2,1,16,17,150,100,-50,280,280,235,100,1,3,0,90,60,64,180,190.45,10.449997,.75,low,0,0,,,,,
